sep=,
DeviceTag:,Xsens DOT
FirmwareVersion:,2.2.1
AppVersion:,2023.6.0
StartTime: ,2023-12-12_15:45:17_000 CET
© Movella Technologies B. V. 2005-2023

PacketCounter,SampleTimeFine,Euler_X,Euler_Y,Euler_Z,Acc_X,Acc_Y,Acc_Z,Gyr_X,Gyr_Y,Gyr_Z
0,2172348013,5.86964797973633,-3.04807686805725,-132.80805969238281,0.00000000000000,0.00000000000000,0.00000000000000,0.00000000000000,0.00000000000000,0.00000000000000
1,2172364680,6.02027654647827,-3.08970141410828,-133.36499023437500,-0.02579531073570,0.71706521511078,10.18977546691895,5.82294416427612,-5.87117910385132,-33.51348114013672
2,2172381347,6.17081212997437,-3.13046884536743,-133.91572570800781,0.03098270110786,0.83346086740494,10.13137722015381,5.81337594985962,-5.86864233016968,-33.13179397583008
3,2172398014,6.31253767013550,-3.16916561126709,-134.46008300781250,0.09160421788692,0.94280475378036,10.14504432678223,5.28383779525757,-5.78854417800903,-32.75194549560547
4,2172414681,6.44035911560059,-3.20556879043579,-134.99961853027344,0.17186616361141,1.01947188377380,10.09819602966309,4.44350051879883,-5.69679784774780,-32.46191406250000
5,2172431348,6.54925823211670,-3.24146652221680,-135.53315734863281,0.24798028171062,1.08245575428009,10.07721614837646,3.30795645713806,-5.69326972961426,-32.09614181518555
6,2172448015,6.63125038146973,-3.27447700500488,-136.05924987792969,0.19189472496510,1.11541271209717,10.07170009613037,1.69984412193298,-5.52399396896362,-31.66534423828125
7,2172464682,6.68400144577026,-3.30597519874573,-136.58039855957031,0.17706774175167,1.11502826213837,10.05479717254639,-0.05616244673729,-5.43661594390869,-31.37095069885254
8,2172481349,6.70740222930908,-3.33615374565125,-137.09915161132812,0.23650719225407,1.10554432868958,10.09275245666504,-1.82571792602539,-5.36334371566772,-31.23345184326172
9,2172498016,6.69878053665161,-3.36344385147095,-137.61384582519531,0.22319789230824,1.08770442008972,10.06742572784424,-3.74952673912048,-5.16825675964355,-31.01074028015137
10,2172514683,6.65606260299683,-3.38848590850830,-138.12573242187500,0.14142382144928,1.06490230560303,10.07090377807617,-5.79923534393311,-5.00180673599243,-30.86076164245605
11,2172531350,6.58491039276123,-3.41204810142517,-138.63478088378906,0.17486447095871,1.03165471553802,10.03936195373535,-7.50879335403442,-4.86593723297119,-30.70728111267090
12,2172548017,6.48534536361694,-3.43247675895691,-139.13980102539062,0.27986565232277,0.98176258802414,10.02557754516602,-9.21026325225830,-4.60737609863281,-30.49210929870605
13,2172564684,6.36181497573853,-3.45258140563965,-139.63897705078125,0.36761885881424,0.91115224361420,10.05438709259033,-10.63731956481934,-4.49241352081299,-30.15832519531250
14,2172581351,6.21858644485474,-3.47176814079285,-140.13345336914062,0.36324378848076,0.85690164566040,10.01736259460449,-11.81310558319092,-4.33817958831787,-29.89043426513672
15,2172598018,6.05882787704468,-3.48901700973511,-140.62205505371094,0.31345644593239,0.74390560388565,10.02266979217529,-12.79201602935791,-4.10839414596558,-29.56556701660156
16,2172614685,5.88651704788208,-3.50334024429321,-141.10789489746094,0.33995449542999,0.68917137384415,10.02735042572021,-13.54238128662109,-3.83323621749878,-29.43230247497559
17,2172631352,5.70354652404785,-3.51488876342773,-141.58848571777344,0.41013613343239,0.63298952579498,10.00386714935303,-14.16880607604980,-3.54801225662231,-29.14703750610352
18,2172648019,5.51272392272949,-3.52572059631348,-142.06604003906250,0.36074969172478,0.62458109855652,10.00416278839111,-14.63363265991211,-3.39412450790405,-28.97950172424316
19,2172664686,5.31448173522949,-3.53650283813477,-142.53703308105469,0.30547007918358,0.58897823095322,10.03411483764648,-15.05817890167236,-3.25813341140747,-28.59951019287109
20,2172681353,5.11195802688599,-3.54445838928223,-143.00263977050781,0.32221806049347,0.54277783632278,9.99344635009766,-15.29944992065430,-2.96380329132080,-28.30652046203613
21,2172698020,4.90467548370361,-3.55035424232483,-143.46461486816406,0.33474770188332,0.49444583058357,10.01729393005371,-15.57376003265381,-2.72313284873962,-28.11473274230957
22,2172714687,4.69389295578003,-3.55500769615173,-143.92401123046875,0.26154804229736,0.47321343421936,9.98809719085693,-15.77523231506348,-2.53617238998413,-27.97059631347656
23,2172731354,4.48302650451660,-3.55710816383362,-144.37905883789062,0.25667902827263,0.41464474797249,9.98687267303467,-15.76571559906006,-2.26308846473694,-27.73341941833496
24,2172748021,4.27023124694824,-3.55508542060852,-144.83125305175781,0.28230333328247,0.37500026822090,9.96204280853271,-15.87020301818848,-1.90384328365326,-27.59072875976562
25,2172764688,4.05448579788208,-3.55025386810303,-145.28057861328125,0.29609367251396,0.36577010154724,9.96554088592529,-16.03333282470703,-1.62343490123749,-27.43878746032715
26,2172781355,3.83628511428833,-3.54125905036926,-145.72708129882812,0.26071330904961,0.35197228193283,9.98035907745361,-16.16641426086426,-1.26253747940063,-27.29684829711914
27,2172798022,3.61441278457642,-3.52821660041809,-146.17074584960938,0.25238877534866,0.32402378320694,9.99272632598877,-16.36934852600098,-0.90733963251114,-27.14405059814453
28,2172814689,3.38986444473267,-3.51068067550659,-146.61322021484375,0.28067651391029,0.29107922315598,9.99967861175537,-16.51885986328125,-0.53106194734573,-27.09326553344727
29,2172831356,3.16195440292358,-3.48907613754272,-147.05313110351562,0.29940146207809,0.25734168291092,10.03363323211670,-16.70054626464844,-0.17527474462986,-26.95687103271484
30,2172848023,2.93428206443787,-3.46492528915405,-147.49038696289062,0.25157880783081,0.20141978561878,10.01997756958008,-16.66545295715332,0.08965756744146,-26.80743980407715
31,2172864690,2.70645618438721,-3.43605542182922,-147.92443847656250,0.20071054995060,0.18055051565170,10.06881809234619,-16.65040397644043,0.48518303036690,-26.63045310974121
32,2172881357,2.48123240470886,-3.40395164489746,-148.35469055175781,0.14895492792130,0.15047691762447,10.06546878814697,-16.46557044982910,0.79124307632446,-26.41104316711426
33,2172898024,2.26304244995117,-3.36878418922424,-148.77987670898438,0.08742378652096,0.08864285796881,10.02057170867920,-16.01039123535156,1.08522641658783,-26.11074066162109
34,2172914691,2.05306553840637,-3.33057904243469,-149.19963073730469,0.12495873868465,0.04576853662729,10.01194095611572,-15.48102664947510,1.37369036674500,-25.79026222229004
35,2172931358,1.85506296157837,-3.28865599632263,-149.61454772949219,0.12739634513855,0.02398214489222,9.98249149322510,-14.72735309600830,1.69487428665161,-25.50404357910156
36,2172948025,1.67111253738403,-3.24210619926453,-150.02378845214844,0.09033412486315,0.00834192335606,9.97883319854736,-13.84535503387451,2.06452369689941,-25.17005538940430
37,2172964692,1.50343120098114,-3.19187068939209,-150.42866516113281,0.08727321028709,-0.02594039775431,9.96629524230957,-12.83209514617920,2.36724758148193,-24.90731239318848
38,2172981359,1.35216808319092,-3.13652801513672,-150.82992553710938,0.09999740868807,-0.03794046118855,9.96475791931152,-11.81305027008057,2.74453616142273,-24.69120025634766
39,2172998026,1.21985626220703,-3.07735872268677,-151.22744750976562,0.11480040848255,-0.04611098021269,9.92878341674805,-10.63885688781738,3.03766059875488,-24.46929931640625
40,2173014693,1.10283792018890,-3.01714205741882,-151.61915588378906,0.09329455345869,-0.05294064432383,9.97928524017334,-9.67723655700684,3.15777158737183,-24.11858177185059
41,2173031360,0.99913990497589,-2.95417761802673,-152.00938415527344,0.09083726257086,-0.00357751268893,10.01465892791748,-8.84786891937256,3.36889743804932,-24.02839660644531
42,2173048027,0.90594464540482,-2.88938736915588,-152.39364624023438,0.10884684324265,0.01446513552219,9.95115089416504,-8.17305564880371,3.52275943756104,-23.66614913940430
43,2173064694,0.82199740409851,-2.82371973991394,-152.77789306640625,0.05766883864999,0.06423153728247,10.02751731872559,-7.59101963043213,3.61000990867615,-23.66364097595215
44,2173081361,0.74463391304016,-2.75793123245239,-153.15855407714844,0.06859331578016,0.06631498783827,9.97848129272461,-7.15951538085938,3.65153408050537,-23.44436264038086
45,2173098028,0.67339307069778,-2.69170665740967,-153.53407287597656,0.04658400639892,0.12204584479332,9.97137546539307,-6.75131034851074,3.71059632301331,-23.13153648376465
46,2173114695,0.60708039999008,-2.62506389617920,-153.90600585937500,0.03718852996826,0.14853887259960,10.04944610595703,-6.42016267776489,3.76269245147705,-22.91323852539062
47,2173131362,0.54682886600494,-2.56056165695190,-154.27374267578125,0.04202712699771,0.13496558368206,9.99991321563721,-6.01967477798462,3.66106724739075,-22.65721702575684
48,2173148029,0.49355283379555,-2.49519276618958,-154.63706970214844,0.01804783381522,0.17152242362499,9.98824882507324,-5.56583547592163,3.73564481735229,-22.39257812500000
49,2173164696,0.45035070180893,-2.43415832519531,-154.99409484863281,-0.00267165037803,0.12229119241238,10.05105590820312,-4.92131662368774,3.49612689018250,-22.00992202758789
50,2173181363,0.41834434866905,-2.37669205665588,-155.34719848632812,0.07487475126982,0.10388296842575,10.00888919830322,-4.21825218200684,3.29651999473572,-21.77188110351562
51,2173198030,0.40053275227547,-2.32152986526489,-155.69422912597656,0.05272028222680,0.11566504836082,10.02087879180908,-3.33148145675659,3.16921830177307,-21.40508651733398
52,2173214697,0.39726221561432,-2.27176046371460,-156.03764343261719,0.02469319105148,0.09186782687902,10.07297611236572,-2.43129563331604,2.84969925880432,-21.18696784973145
53,2173231364,0.40828657150269,-2.22669458389282,-156.37617492675781,0.06199193745852,0.09354045987129,10.04059791564941,-1.54532527923584,2.56779265403748,-20.89257431030273
54,2173248031,0.43459662795067,-2.18601989746094,-156.70953369140625,0.06345058232546,0.09678956866264,10.05709457397461,-0.60166239738464,2.29846167564392,-20.58142852783203
55,2173264698,0.47501507401466,-2.15054559707642,-157.04118347167969,0.10381123423576,0.12368091940880,10.07755088806152,0.26208230853081,1.97513878345490,-20.47777175903320
56,2173281365,0.52870744466782,-2.12075424194336,-157.36979675292969,0.10484156757593,0.13904109597206,10.07289314270020,1.07532513141632,1.61860978603363,-20.29608917236328
57,2173298032,0.59367853403091,-2.09741663932800,-157.69735717773438,0.03941211849451,0.14241008460522,10.05499076843262,1.76366734504700,1.21062445640564,-20.22921562194824
58,2173314699,0.66913002729416,-2.07722115516663,-158.02157592773438,0.01498164422810,0.18634793162346,10.07988262176514,2.40702104568481,1.00010049343109,-20.02721977233887
59,2173331366,0.75584697723389,-2.06467270851135,-158.34362792968750,0.03398519754410,0.20784413814545,10.05416870117188,3.09177732467651,0.51391953229904,-19.89662170410156
60,2173348033,0.85511380434036,-2.05547595024109,-158.66217041015625,0.06106970086694,0.19271859526634,10.02970600128174,3.85575413703918,0.28382754325867,-19.68493080139160
61,2173364700,0.96565383672714,-2.05209898948669,-158.97657775878906,0.05572986230254,0.20063711702824,10.01158714294434,4.54285383224487,-0.09748847782612,-19.43069839477539
62,2173381367,1.08891355991364,-2.05257940292358,-159.28668212890625,0.03163649886847,0.19285406172276,9.99959754943848,5.31557655334473,-0.36322054266930,-19.16735839843750
63,2173398034,1.22427570819855,-2.05787038803101,-159.58938598632812,0.05654016509652,0.19985693693161,9.99075508117676,6.05614376068115,-0.68586421012878,-18.71735763549805
64,2173414701,1.37556540966034,-2.06757116317749,-159.88708496093750,0.03820397332311,0.21819934248924,9.97021102905273,7.02009725570679,-0.98953509330750,-18.40977859497070
65,2173431368,1.53876733779907,-2.07804870605469,-160.17712402343750,0.05655320733786,0.23982606828213,9.93954563140869,7.74784564971924,-1.07449245452881,-17.94570159912109
66,2173448035,1.71520137786865,-2.09181690216064,-160.46141052246094,0.13476447761059,0.26288416981697,9.94346427917480,8.55065631866455,-1.31397795677185,-17.58956336975098
67,2173464702,1.90006792545319,-2.10665106773376,-160.73959350585938,0.13170571625233,0.30357590317726,9.95180511474609,9.06574249267578,-1.42045032978058,-17.21933174133301
68,2173481369,2.08738541603088,-2.12094855308533,-161.01039123535156,0.09829521179199,0.33430477976799,9.93861675262451,9.22437381744385,-1.42789053916931,-16.77154350280762
69,2173498036,2.27334070205688,-2.13676667213440,-161.27700805664062,0.12257449328899,0.33317044377327,9.88630485534668,9.14802169799805,-1.56254947185516,-16.51439094543457
70,2173514703,2.45678591728210,-2.15175223350525,-161.53855895996094,0.16847300529480,0.34634080529213,9.85693740844727,9.00487327575684,-1.55211234092712,-16.20668029785156
71,2173531370,2.63951563835144,-2.16586112976074,-161.79708862304688,0.25331661105156,0.32681366801262,9.85506820678711,8.96391773223877,-1.54177749156952,-16.02416229248047
72,2173548037,2.82209491729736,-2.17955374717712,-162.05105590820312,0.29935961961746,0.29152250289917,9.83330726623535,8.96186828613281,-1.55341827869415,-15.74760913848877
73,2173564704,3.00223374366760,-2.19292497634888,-162.30158996582031,0.32224744558334,0.24337436258793,9.81770992279053,8.81960201263428,-1.57180845737457,-15.53867340087891
74,2173581371,3.18452239036560,-2.20525121688843,-162.55238342285156,0.35420551896095,0.22750121355057,9.78464412689209,8.94530963897705,-1.55681204795837,-15.55081462860107
75,2173598038,3.36718606948853,-2.21604013442993,-162.80033874511719,0.32118922472000,0.19279895722866,9.81950950622559,8.97282886505127,-1.50267946720123,-15.38230705261230
76,2173614705,3.55131959915161,-2.22427701950073,-163.04885864257812,0.29652076959610,0.20246413350105,9.77308845520020,9.05875492095947,-1.39889049530029,-15.41964435577393
77,2173631372,3.73882842063904,-2.23036766052246,-163.29693603515625,0.30756971240044,0.20090746879578,9.82732105255127,9.26140785217285,-1.31628274917603,-15.39736557006836
78,2173648039,3.92707610130310,-2.23402667045593,-163.54814147949219,0.35312375426292,0.20208181440830,9.80508422851562,9.29790687561035,-1.23297750949860,-15.58850288391113
79,2173664706,4.11536931991577,-2.23632597923279,-163.79899597167969,0.27904045581818,0.25087672472000,9.83525276184082,9.30289363861084,-1.19791996479034,-15.57186985015869
80,2173681373,4.30117654800415,-2.23717069625854,-164.05081176757812,0.21209535002708,0.33037966489792,9.90801334381104,9.15168380737305,-1.16484773159027,-15.62870025634766
81,2173698040,4.48153114318848,-2.23540019989014,-164.30505371093750,0.23292374610901,0.33600771427155,9.88761806488037,8.82117652893066,-1.06778824329376,-15.78381252288818
82,2173714707,4.65731287002563,-2.23097181320190,-164.56193542480469,0.19309112429619,0.41441604495049,9.88687610626221,8.54228019714355,-0.96864134073257,-15.94682502746582
83,2173731374,4.82578897476196,-2.22552299499512,-164.81886291503906,0.15803965926170,0.48845201730728,9.91056251525879,8.10566616058350,-0.95440721511841,-15.95561599731445
84,2173748041,4.98526954650879,-2.21585607528687,-165.07562255859375,0.23255570232868,0.61388707160950,9.92616844177246,7.57030248641968,-0.74625891447067,-15.96429157257080
85,2173764708,5.13039827346802,-2.20496225357056,-165.33213806152344,0.18321117758751,0.69952148199081,9.94633865356445,6.71255064010620,-0.71205931901932,-15.95439624786377
86,2173781375,5.25856971740723,-2.19455146789551,-165.59033203125000,0.17639802396297,0.70551884174347,9.98481464385986,5.69501495361328,-0.78772568702698,-16.05028343200684
87,2173798042,5.37062120437622,-2.18112754821777,-165.84545898437500,0.21060809493065,0.79649680852890,9.95845127105713,4.73809814453125,-0.62320250272751,-15.88079261779785
88,2173814709,5.46523427963257,-2.16546177864075,-166.10026550292969,0.14750227332115,0.83669507503510,9.95225143432617,3.69737601280212,-0.51530885696411,-15.87308311462402
89,2173831376,5.54234743118286,-2.15010571479797,-166.35400390625000,0.14273928105831,0.86252659559250,10.00548171997070,2.65318322181702,-0.55069261789322,-15.80681800842285
90,2173848043,5.60437059402466,-2.13246512413025,-166.60409545898438,0.13605006039143,0.92210674285889,9.98107910156250,1.76008069515228,-0.41325485706329,-15.60313510894775
91,2173864710,5.64910840988159,-2.11165094375610,-166.85008239746094,0.12947703897953,0.95317786931992,10.00679492950439,0.73733890056610,-0.21344999969006,-15.37784481048584
92,2173881377,5.67951726913452,-2.09107637405396,-167.09516906738281,0.14220806956291,0.98489058017731,10.02027988433838,-0.11439277976751,-0.23237776756287,-15.32159805297852
93,2173898044,5.69536924362183,-2.06947517395020,-167.33621215820312,0.15031717717648,0.98448604345322,9.98220348358154,-0.97464740276337,-0.15334978699684,-15.08557987213135
94,2173914711,5.70065164566040,-2.04697751998901,-167.57147216796875,0.15160042047501,0.97429800033569,9.97729492187500,-1.59079968929291,-0.06880217045546,-14.74807929992676
95,2173931378,5.69686079025269,-2.02360033988953,-167.80372619628906,0.20718327164650,0.95807129144669,10.03166580200195,-2.12333917617798,0.00065312429797,-14.57685661315918
96,2173948045,5.68598604202271,-1.99958395957947,-168.03265380859375,0.24128736555576,0.95498579740524,9.98764705657959,-2.53595972061157,0.06006182357669,-14.37857627868652
97,2173964712,5.66881227493286,-1.97435498237610,-168.25788879394531,0.24628764390945,0.93298828601837,9.98641300201416,-2.90008997917175,0.15840826928616,-14.16439819335938
98,2173981379,5.64807939529419,-1.94925057888031,-168.47988891601562,0.24610686302185,0.91675084829330,10.06640529632568,-3.10139226913452,0.17439056932926,-13.97214508056641
99,2173998046,5.62327194213867,-1.92352688312531,-168.69813537597656,0.27099943161011,0.87330740690231,10.08129310607910,-3.33238720893860,0.23951731622219,-13.75135803222656
100,2174014713,5.59889364242554,-1.89723491668701,-168.91467285156250,0.27016100287437,0.83925765752792,10.04018402099609,-3.29750299453735,0.28846323490143,-13.65310764312744
101,2174031380,5.57635354995728,-1.87167870998383,-169.12857055664062,0.29458346962929,0.79281353950500,10.11087131500244,-3.17508673667908,0.26513001322746,-13.49153041839600
102,2174048047,5.55949687957764,-1.84739077091217,-169.34062194824219,0.35020095109940,0.76026868820190,10.10967922210693,-2.82478165626526,0.20582379400730,-13.37147045135498
103,2174064714,5.54704236984253,-1.82420313358307,-169.55181884765625,0.34690913558006,0.71427571773529,10.12650394439697,-2.55367112159729,0.14758048951626,-13.31937408447266
104,2174081381,5.54093885421753,-1.80296564102173,-169.76092529296875,0.35902634263039,0.69515448808670,10.17234706878662,-2.16206502914429,0.04642304033041,-13.17777252197266
105,2174098048,5.54263448715210,-1.78339374065399,-169.96842956542969,0.42949059605598,0.67010027170181,10.17752552032471,-1.68592488765717,-0.04248508810997,-13.07477188110352
106,2174114715,5.55558443069458,-1.76444983482361,-170.17553710937500,0.41721618175507,0.64248132705688,10.18320465087891,-1.00607371330261,-0.07907284796238,-13.04639339447021
107,2174131382,5.58213806152344,-1.74858713150024,-170.38195800781250,0.38618847727776,0.66917401552200,10.22096061706543,-0.18312451243401,-0.26211410760880,-12.99013519287109
108,2174148049,5.62226819992065,-1.73551523685455,-170.58865356445312,0.40697392821312,0.67668342590332,10.24880695343018,0.63464474678040,-0.43671604990959,-12.98624420166016
109,2174164716,5.67647171020508,-1.72590851783752,-170.79385375976562,0.39997124671936,0.71085661649704,10.29306030273438,1.48549914360046,-0.64496022462845,-12.88244724273682
110,2174181383,5.74373722076416,-1.72001838684082,-170.99894714355469,0.45207679271698,0.72393411397934,10.30018424987793,2.27156591415405,-0.87889391183853,-12.85068511962891
111,2174198050,5.82378673553467,-1.71658301353455,-171.20718383789062,0.47216841578484,0.76113885641098,10.30117034912109,3.03490185737610,-1.05856704711914,-13.02194499969482
112,2174214717,5.91608476638794,-1.71702587604523,-171.41433715820312,0.47430342435837,0.82115578651428,10.33642196655273,3.77213859558105,-1.30090200901031,-12.93031787872314
113,2174231384,6.01601743698120,-1.72137260437012,-171.62185668945312,0.48613828420639,0.85842502117157,10.34092998504639,4.23047733306885,-1.55635011196136,-12.92739582061768
114,2174248051,6.12406206130981,-1.72901678085327,-171.82943725585938,0.51173132658005,0.92202502489090,10.32176399230957,4.71545457839966,-1.77509570121765,-12.90846920013428
115,2174264718,6.23749828338623,-1.73907840251923,-172.03611755371094,0.48812580108643,0.92655766010284,10.30257892608643,5.03982019424438,-1.93587303161621,-12.83231639862061
116,2174281385,6.35661840438843,-1.75266671180725,-172.24179077148438,0.47654995322227,0.94945371150970,10.31260967254639,5.37959957122803,-2.16300702095032,-12.74556732177734
117,2174298052,6.47935295104980,-1.76887881755829,-172.44746398925781,0.51753729581833,0.97386866807938,10.29366588592529,5.59331893920898,-2.34510707855225,-12.72569847106934
118,2174314719,6.60769128799438,-1.78810918331146,-172.65090942382812,0.48601087927818,0.99603700637817,10.28520774841309,5.93154573440552,-2.53461480140686,-12.56503963470459
119,2174331386,6.73843097686768,-1.81051647663116,-172.85273742675781,0.47432181239128,0.99718391895294,10.27477169036865,6.07338905334473,-2.73890161514282,-12.44277763366699
120,2174348053,6.87517738342285,-1.83460819721222,-173.05314636230469,0.49424311518669,0.97943031787872,10.25558185577393,6.43217945098877,-2.85663771629333,-12.34041213989258
121,2174364720,7.01935148239136,-1.86017680168152,-173.25166320800781,0.48100796341896,0.96832019090652,10.23872947692871,6.87679052352905,-2.95830750465393,-12.20670127868652
122,2174381387,7.17089605331421,-1.88751804828644,-173.44932556152344,0.47960221767426,0.95094573497772,10.20878791809082,7.31619548797607,-3.08583950996399,-12.13609409332275
123,2174398054,7.33084106445312,-1.91551482677460,-173.64541625976562,0.49108666181564,0.93040108680725,10.19032669067383,7.81769466400146,-3.14496684074402,-12.03117275238037
124,2174414721,7.49950933456421,-1.94577658176422,-173.84141540527344,0.50468730926514,0.93139129877090,10.16341018676758,8.33631229400635,-3.30993819236755,-11.99691390991211
125,2174431388,7.67533969879150,-1.97535479068756,-174.03694152832031,0.50281268358231,0.93408262729645,10.13966274261475,8.76222705841064,-3.29932165145874,-11.96588420867920
126,2174448055,7.86023235321045,-2.00242352485657,-174.23335266113281,0.44154623150826,0.92264896631241,10.12546253204346,9.29858875274658,-3.19206237792969,-12.02536392211914
127,2174464722,8.05319786071777,-2.02938008308411,-174.42991638183594,0.43341198563576,0.90172803401947,10.10510540008545,9.77898883819580,-3.22320079803467,-12.02567863464355
128,2174481389,8.25482940673828,-2.05456733703613,-174.62651062011719,0.45132201910019,0.92235022783279,10.07827854156494,10.29432964324951,-3.15837550163269,-12.03272438049316
129,2174498056,8.46374702453613,-2.07835340499878,-174.82553100585938,0.44208389520645,0.95356065034866,10.05151653289795,10.72340774536133,-3.13586211204529,-12.17536163330078
130,2174514723,8.67856693267822,-2.10041642189026,-175.02510070800781,0.39773944020271,0.98992848396301,10.06073665618896,11.07254791259766,-3.08146047592163,-12.21462535858154
131,2174531390,8.89603424072266,-2.12083172798157,-175.22817993164062,0.33554890751839,1.02813661098480,9.99497127532959,11.22076797485352,-3.05945920944214,-12.42526340484619
132,2174548057,9.11610603332520,-2.13810205459595,-175.43363952636719,0.32699933648109,1.06090688705444,9.98808765411377,11.36914920806885,-2.94002056121826,-12.58363533020020
133,2174564724,9.33366584777832,-2.15361142158508,-175.64360046386719,0.36967492103577,1.10434556007385,9.94265365600586,11.20572757720947,-2.92467904090881,-12.85707759857178
134,2174581391,9.54680442810059,-2.16491889953613,-175.85639953613281,0.33948275446892,1.15566658973694,9.90727901458740,10.93272686004639,-2.74983978271484,-13.05246829986572
135,2174598058,9.75255489349365,-2.17532682418823,-176.07322692871094,0.30512401461601,1.21925902366638,9.90157890319824,10.47922801971436,-2.78262376785278,-13.29101181030273
136,2174614725,9.94600296020508,-2.18230414390564,-176.29302978515625,0.29417449235916,1.29990720748901,9.88828182220459,9.73324489593506,-2.65406107902527,-13.49149513244629
137,2174631392,10.12407207489014,-2.18536162376404,-176.51731872558594,0.29190042614937,1.33909666538239,9.88290786743164,8.80007743835449,-2.51110982894897,-13.78904438018799
138,2174648059,10.28189086914062,-2.18718481063843,-176.74554443359375,0.27521324157715,1.38385176658630,9.85703563690186,7.57607650756836,-2.51867222785950,-14.02719879150391
139,2174664726,10.41960430145264,-2.18472671508789,-176.97880554199219,0.30924010276794,1.40809166431427,9.82872581481934,6.36007452011108,-2.35476303100586,-14.36304473876953
140,2174681393,10.53512668609619,-2.18101549148560,-177.21510314941406,0.33743858337402,1.43046438694000,9.83475208282471,5.02244997024536,-2.34460759162903,-14.54905796051025
141,2174698060,10.63120651245117,-2.17415904998779,-177.45420837402344,0.28876850008965,1.44003045558929,9.81303691864014,3.85229372978210,-2.21583962440491,-14.74674701690674
142,2174714727,10.70427989959717,-2.16711163520813,-177.69685363769531,0.29191181063652,1.47125279903412,9.78569507598877,2.46622300148010,-2.26419639587402,-14.95370864868164
143,2174731394,10.75877094268799,-2.15795016288757,-177.94181823730469,0.27409610152245,1.44077539443970,9.76825904846191,1.34804880619049,-2.18177509307861,-15.11088562011719
144,2174748061,10.79745960235596,-2.14639472961426,-178.19000244140625,0.30670022964478,1.42622852325439,9.78584003448486,0.39698439836502,-2.08750700950623,-15.32610988616943
145,2174764728,10.82054233551025,-2.13438320159912,-178.44171142578125,0.31769645214081,1.40255236625671,9.77626323699951,-0.54323941469193,-2.10931634902954,-15.54024314880371
146,2174781395,10.83279418945312,-2.12206959724426,-178.69595336914062,0.30222332477570,1.37947094440460,9.78307819366455,-1.19466066360474,-2.12460732460022,-15.69348526000977
147,2174798062,10.83880901336670,-2.10867357254028,-178.95085144042969,0.30817109346390,1.37390851974487,9.80122470855713,-1.56604516506195,-2.06952738761902,-15.74152374267578
148,2174814729,10.84051799774170,-2.09252190589905,-179.20573425292969,0.34521663188934,1.32607102394104,9.78140830993652,-1.81874024868011,-1.90826952457428,-15.77193832397461
149,2174831396,10.84084033966064,-2.07631468772888,-179.46299743652344,0.35204833745956,1.30822050571442,9.76896953582764,-1.90182793140411,-1.93132090568542,-15.91315460205078
150,2174848063,10.84168624877930,-2.05940413475037,-179.72177124023438,0.34601846337318,1.30785191059113,9.77684974670410,-1.86682796478271,-1.90665590763092,-16.01064682006836
151,2174864730,10.84663295745850,-2.04356741905212,-179.98249816894531,0.36028802394867,1.31035387516022,9.76260948181152,-1.62061309814453,-1.99291968345642,-16.11505889892578
152,2174881397,10.85436248779297,-2.02558803558350,179.75595092773438,0.32964214682579,1.32750451564789,9.77136230468750,-1.44850838184357,-1.87715005874634,-16.18717193603516
153,2174898064,10.86761569976807,-2.00835061073303,179.49369812011719,0.33583375811577,1.36434054374695,9.76724624633789,-1.11308419704437,-1.93077027797699,-16.21949386596680
154,2174914731,10.88324642181396,-1.98967337608337,179.22923278808594,0.33579704165459,1.38217628002167,9.76741886138916,-0.96858996152878,-1.87408947944641,-16.36398696899414
155,2174931398,10.90196228027344,-1.97156953811646,178.96185302734375,0.30613228678703,1.39223659038544,9.78872394561768,-0.78307700157166,-1.94545900821686,-16.52795791625977
156,2174948065,10.92660427093506,-1.95272910594940,178.69223022460938,0.31053462624550,1.39148449897766,9.78930854797363,-0.42640706896782,-1.93328058719635,-16.66748619079590
157,2174964732,10.95439052581787,-1.93419396877289,178.41932678222656,0.29134389758110,1.42377984523773,9.77822113037109,-0.23791016638279,-1.99563467502594,-16.85759735107422
158,2174981399,10.98765754699707,-1.91699957847595,178.14498901367188,0.27371901273727,1.43808889389038,9.79953193664551,0.09440849721432,-2.09991669654846,-16.92749595642090
159,2174998066,11.02457237243652,-1.89966213703156,177.86650085449219,0.24677073955536,1.45231378078461,9.77958679199219,0.31022131443024,-2.14833760261536,-17.17112350463867
160,2175014733,11.06938266754150,-1.88194251060486,177.58584594726562,0.28206604719162,1.43831205368042,9.75948524475098,0.78629142045975,-2.16175222396851,-17.30290603637695
161,2175031400,11.11953258514404,-1.86390292644501,177.30447387695312,0.29707294702530,1.45456862449646,9.74943542480469,1.11092650890350,-2.16522955894470,-17.34693145751953
162,2175048067,11.17425823211670,-1.84639227390289,177.02166748046875,0.26019304990768,1.49637973308563,9.75220775604248,1.38876044750214,-2.22723770141602,-17.42103767395020
163,2175064734,11.23191738128662,-1.82999634742737,176.73660278320312,0.26665332913399,1.54627454280853,9.77751255035400,1.56653821468353,-2.33602809906006,-17.54252052307129
164,2175081401,11.29077339172363,-1.81308627128601,176.45094299316406,0.29871180653572,1.57644009590149,9.77440547943115,1.64264667034149,-2.32931733131409,-17.57959556579590
165,2175098068,11.34781742095947,-1.79809427261353,176.16348266601562,0.30244085192680,1.57792413234711,9.78424072265625,1.53626418113708,-2.47999739646912,-17.65967369079590
166,2175114735,11.40262508392334,-1.78359949588776,175.87477111816406,0.31454673409462,1.61033070087433,9.78712654113770,1.40446102619171,-2.53964900970459,-17.72561073303223
167,2175131402,11.45620632171631,-1.77008950710297,175.58592224121094,0.32881203293800,1.63531291484833,9.77252388000488,1.33519136905670,-2.61565470695496,-17.72092437744141
168,2175148069,11.50446224212646,-1.75869965553284,175.29502868652344,0.32919958233833,1.65016329288483,9.79117584228516,1.01678693294525,-2.77974271774292,-17.81335258483887
169,2175164736,11.54663181304932,-1.74706590175629,175.00492858886719,0.27460604906082,1.67877388000488,9.76311874389648,0.65610837936401,-2.76862668991089,-17.76774597167969
170,2175181403,11.58136272430420,-1.73804783821106,174.71086120605469,0.27776634693146,1.69506776332855,9.78019428253174,0.20668190717697,-2.98050856590271,-17.96520996093750
171,2175198070,11.61014938354492,-1.73128950595856,174.41723632812500,0.31690937280655,1.68065440654755,9.81255149841309,-0.14709389209747,-3.11695361137390,-17.91014862060547
172,2175214737,11.63159942626953,-1.72715854644775,174.12419128417969,0.30174782872200,1.69587850570679,9.79580402374268,-0.58334904909134,-3.27141761779785,-17.84572601318359
173,2175231404,11.64481449127197,-1.72618412971497,173.82926940917969,0.30678713321686,1.70874619483948,9.78804969787598,-1.08009517192841,-3.48492574691772,-17.91658592224121
174,2175248071,11.65107250213623,-1.72595298290253,173.53463745117188,0.33545911312103,1.71953821182251,9.80488395690918,-1.49690413475037,-3.52700781822205,-17.88900184631348
175,2175264738,11.64974403381348,-1.72992885112762,173.23837280273438,0.31925216317177,1.71557128429413,9.80898761749268,-1.95500040054321,-3.79446864128113,-17.93474578857422
176,2175281405,11.64357280731201,-1.73605132102966,172.94335937500000,0.32382059097290,1.71955895423889,9.81056308746338,-2.24491095542908,-3.90288710594177,-17.83429145812988
177,2175298072,11.63332748413086,-1.74267339706421,172.64886474609375,0.31676071882248,1.67916405200958,9.82505989074707,-2.48949933052063,-3.92340254783630,-17.79952049255371
178,2175314739,11.62213611602783,-1.75186288356781,172.35476684570312,0.34007453918457,1.68751788139343,9.87003231048584,-2.54824256896973,-4.06548929214478,-17.74770736694336
179,2175331406,11.61075496673584,-1.76420211791992,172.06101989746094,0.35161262750626,1.69849097728729,9.85269355773926,-2.56204748153687,-4.24242162704468,-17.68586540222168
180,2175348073,11.60054779052734,-1.77724015712738,171.76934814453125,0.33322897553444,1.68527269363403,9.85046482086182,-2.49066495895386,-4.25475454330444,-17.55929946899414
181,2175364740,11.59320926666260,-1.79063653945923,171.47848510742188,0.32840180397034,1.66498208045959,9.85880088806152,-2.32137775421143,-4.26255321502686,-17.50788307189941
182,2175381407,11.59335994720459,-1.80598652362823,171.18960571289062,0.32240462303162,1.65257942676544,9.83754158020020,-1.87224555015564,-4.35185241699219,-17.36918830871582
183,2175398074,11.60131549835205,-1.82175981998444,170.90318298339844,0.33464398980141,1.65543246269226,9.86600399017334,-1.40330195426941,-4.34752273559570,-17.21722412109375
184,2175414741,11.61776161193848,-1.83798086643219,170.61878967285156,0.34251537919044,1.66776669025421,9.86296176910400,-0.89419794082642,-4.35247945785522,-17.09361839294434
185,2175431408,11.64162731170654,-1.85305702686310,170.33534240722656,0.30515146255493,1.66354644298553,9.85989093780518,-0.45144349336624,-4.27926492691040,-17.05015373229980
186,2175448075,11.67495632171631,-1.86666059494019,170.05310058593750,0.28892627358437,1.63203847408295,9.82865810394287,0.11457853019238,-4.18548440933228,-16.99530601501465
187,2175464742,11.71866893768311,-1.87850546836853,169.77470397949219,0.34999832510948,1.65165519714355,9.82321071624756,0.74174451828003,-4.04548501968384,-16.78544616699219
188,2175481409,11.77157783508301,-1.88870906829834,169.49859619140625,0.34378272294998,1.71811687946320,9.82923507690430,1.29574799537659,-3.93456935882568,-16.66966629028320
189,2175498076,11.83047676086426,-1.89666569232941,169.22531127929688,0.29654744267464,1.75670802593231,9.82494258880615,1.65900015830994,-3.78231430053711,-16.52445030212402
190,2175514743,11.89397621154785,-1.90234386920929,168.95315551757812,0.32466191053391,1.80027878284454,9.84559059143066,1.93392729759216,-3.65198469161987,-16.48615074157715
191,2175531410,11.95738029479980,-1.90443098545074,168.68292236328125,0.30069193243980,1.82828116416931,9.82998847961426,1.93208301067352,-3.43503117561340,-16.41372871398926
192,2175548077,12.01856994628906,-1.90243077278137,168.41488647460938,0.32894760370255,1.88209056854248,9.79663467407227,1.80234205722809,-3.18479514122009,-16.33307647705078
193,2175564744,12.07401657104492,-1.89619135856628,168.14944458007812,0.40997961163521,1.94420266151428,9.81106853485107,1.46512460708618,-2.91803860664368,-16.22753524780273
194,2175581411,12.11926746368408,-1.88454329967499,167.88513183593750,0.40701204538345,1.97706747055054,9.80252075195312,0.85764199495316,-2.60019707679749,-16.22821426391602
195,2175598078,12.15542602539062,-1.86834847927094,167.62332153320312,0.36094868183136,1.98654699325562,9.82714080810547,0.31981965899467,-2.31282854080200,-16.13837051391602
196,2175614745,12.17894268035889,-1.84819793701172,167.36596679687500,0.30590355396271,2.01155591011047,9.83226776123047,-0.42484462261200,-2.03103113174438,-15.92687988281250
197,2175631412,12.18894195556641,-1.82487881183624,167.11167907714844,0.30641940236092,2.03087997436523,9.80627250671387,-1.22483241558075,-1.81083881855011,-15.78511524200439
198,2175648079,12.18706893920898,-1.79851818084717,166.86254882812500,0.37582933902740,2.05216240882874,9.82255458831787,-1.92134487628937,-1.56811976432800,-15.52044582366943
199,2175664746,12.17184162139893,-1.76882517337799,166.61752319335938,0.41951364278793,2.04571413993835,9.83763885498047,-2.70905137062073,-1.31844687461853,-15.32445716857910
200,2175681413,12.14437580108643,-1.73688077926636,166.37571716308594,0.39075532555580,2.06260752677917,9.84006500244141,-3.42857623100281,-1.13879907131195,-15.16384983062744
201,2175698080,12.10429191589355,-1.70204365253448,166.13740539550781,0.33855426311493,2.07814788818359,9.88234996795654,-4.17244672775269,-0.91604542732239,-14.99849414825439
202,2175714747,12.04937076568604,-1.66564738750458,165.90409851074219,0.33966353535652,2.09912490844727,9.86436843872070,-5.04484081268311,-0.74887108802795,-14.72298049926758
203,2175731414,11.97786808013916,-1.62909317016602,165.67669677734375,0.35320025682449,2.11812639236450,9.88334274291992,-6.02254247665405,-0.65078717470169,-14.38218784332275
204,2175748081,11.88886356353760,-1.59349775314331,165.45445251464844,0.36198836565018,2.14750480651855,9.90725135803223,-7.05599212646484,-0.62307435274124,-14.06697559356689
205,2175764748,11.78280639648438,-1.55558180809021,165.23526000976562,0.40281152725220,2.14633011817932,9.91611480712891,-8.06659221649170,-0.42557460069656,-13.91977787017822
206,2175781415,11.65841960906982,-1.52128386497498,165.02203369140625,0.39847737550735,2.09887909889221,9.95887851715088,-9.14928150177002,-0.53875726461411,-13.52833938598633
207,2175798082,11.52196884155273,-1.48548030853271,164.81369018554688,0.40950998663902,2.07420396804810,9.94504928588867,-9.85893344879150,-0.36004444956779,-13.25692272186279
208,2175814749,11.37536811828613,-1.45256090164185,164.61146545410156,0.35349094867706,2.04038906097412,9.94508743286133,-10.45137977600098,-0.42553618550301,-12.86481666564941
209,2175831416,11.21862983703613,-1.42083692550659,164.41333007812500,0.36113107204437,1.97768294811249,9.98938274383545,-11.04887485504150,-0.41512468457222,-12.61351966857910
210,2175848083,11.05740642547607,-1.39208197593689,164.21946716308594,0.36408418416977,1.94227290153503,9.97898578643799,-11.30533504486084,-0.50587052106857,-12.32624626159668
211,2175864750,10.89508628845215,-1.36447966098785,164.03059387207031,0.37876155972481,1.89108538627625,10.00043773651123,-11.35887813568115,-0.48242202401161,-12.02310466766357
212,2175881417,10.73374080657959,-1.34122586250305,163.84646606445312,0.34445306658745,1.85686767101288,10.01778221130371,-11.28905677795410,-0.65233677625656,-11.69454288482666
213,2175898084,10.57639980316162,-1.32107484340668,163.66534423828125,0.35284030437469,1.79728233814240,10.01195812225342,-11.04108810424805,-0.77114146947861,-11.48532772064209
214,2175914751,10.42647552490234,-1.30501639842987,163.48785400390625,0.38885921239853,1.76721811294556,10.02831172943115,-10.58867645263672,-0.94273376464844,-11.22766304016113
215,2175931418,10.28741550445557,-1.29048585891724,163.31449890136719,0.37324845790863,1.73322665691376,10.03536987304688,-9.92838001251221,-0.96125191450119,-10.97083091735840
216,2175948085,10.16064262390137,-1.28007590770721,163.14434814453125,0.35271623730659,1.69725060462952,10.03094768524170,-9.18531513214111,-1.14554786682129,-10.74022579193115
217,2175964752,10.05068302154541,-1.27300977706909,162.97653198242188,0.35171192884445,1.66527903079987,10.05498409271240,-8.17258834838867,-1.29644525051117,-10.56894016265869
218,2175981419,9.95833778381348,-1.27005577087402,162.81126403808594,0.33606338500977,1.62675082683563,10.04581546783447,-7.11031389236450,-1.49402165412903,-10.37602424621582
219,2175998086,9.88384437561035,-1.26907622814178,162.64733886718750,0.35037058591843,1.61917233467102,10.04955863952637,-6.03852415084839,-1.58355081081390,-10.28019428253174
220,2176014753,9.82854175567627,-1.27355182170868,162.48477172851562,0.34794083237648,1.60616791248322,10.05276870727539,-4.88545083999634,-1.87942838668823,-10.14748001098633
221,2176031420,9.79386138916016,-1.27836644649506,162.32243347167969,0.32092490792274,1.57815194129944,10.03712463378906,-3.64938259124756,-1.88954579830170,-10.13130664825439
222,2176048087,9.77700614929199,-1.28699958324432,162.16040039062500,0.35477703809738,1.55478048324585,10.02993869781494,-2.58047389984131,-2.10733056068420,-10.07493209838867
223,2176064754,9.77984428405762,-1.29708504676819,161.99667358398438,0.35497137904167,1.53709352016449,10.01983261108398,-1.40359556674957,-2.20875668525696,-10.15906906127930
224,2176081421,9.80089664459229,-1.30984854698181,161.83300781250000,0.32661795616150,1.54579472541809,10.02070331573486,-0.31187954545021,-2.36756825447083,-10.12771797180176
225,2176098088,9.83849906921387,-1.32457029819489,161.66947937011719,0.31009396910667,1.54403197765350,10.03359127044678,0.67849355936050,-2.48655223846436,-10.09964847564697
226,2176114755,9.89144992828369,-1.34235501289368,161.50765991210938,0.30326998233795,1.54841470718384,10.03638267517090,1.59852743148804,-2.65755534172058,-9.96512985229492
227,2176131422,9.95778083801270,-1.36219239234924,161.34716796875000,0.32349997758865,1.55560898780823,10.01615428924561,2.40035891532898,-2.77513074874878,-9.86429309844971
228,2176148089,10.03889083862305,-1.38296461105347,161.18775939941406,0.34865090250969,1.54865694046021,10.01185989379883,3.28483033180237,-2.83030033111572,-9.78403568267822
229,2176164756,10.13188076019287,-1.40612995624542,161.03050231933594,0.37875884771347,1.59429657459259,10.02818489074707,3.99756717681885,-2.96171903610229,-9.62788677215576
230,2176181423,10.23371791839600,-1.43265640735626,160.87657165527344,0.39650574326515,1.64655780792236,10.04803180694580,4.52883958816528,-3.14039349555969,-9.39049720764160
231,2176198090,10.33990001678467,-1.46070158481598,160.72796630859375,0.39012154936790,1.66503465175629,10.06617641448975,4.79271411895752,-3.18878912925720,-9.05762195587158
232,2176214757,10.44789028167725,-1.49184453487396,160.58479309082031,0.38583576679230,1.70494234561920,10.03106212615967,4.90546131134033,-3.32841634750366,-8.69507217407227
233,2176231424,10.55568313598633,-1.52466106414795,160.44689941406250,0.40939089655876,1.76974022388458,10.03955936431885,4.89575481414795,-3.38461732864380,-8.36212730407715
234,2176248091,10.66014957427979,-1.55860543251038,160.31553649902344,0.42309033870697,1.77979516983032,10.02102756500244,4.70222425460815,-3.39182043075562,-7.95424985885620
235,2176264758,10.76006221771240,-1.59375143051147,160.19311523437500,0.45717179775238,1.83869099617004,9.97995853424072,4.43809318542480,-3.37579965591431,-7.40923738479614
236,2176281425,10.85439682006836,-1.62991166114807,160.07937622070312,0.42986056208611,1.88670647144318,9.98592853546143,4.11393880844116,-3.34907269477844,-6.88024568557739
237,2176298092,10.94050407409668,-1.66645145416260,159.97434997558594,0.45519462227821,1.91992270946503,9.94712257385254,3.62905073165894,-3.28242778778076,-6.35832118988037
238,2176314759,11.01580619812012,-1.70538592338562,159.88018798828125,0.43282523751259,1.91988492012024,9.92954063415527,2.99595594406128,-3.30670881271362,-5.68669223785400
239,2176331426,11.07853603363037,-1.74500465393066,159.79943847656250,0.44672176241875,1.98858654499054,9.90757274627686,2.26030826568604,-3.19905900955200,-4.88525819778442
240,2176348093,11.12577247619629,-1.78380930423737,159.73158264160156,0.50461053848267,2.04185962677002,9.87801361083984,1.35057055950165,-3.00523471832275,-4.13188648223877
241,2176364760,11.15402317047119,-1.82267463207245,159.67430114746094,0.51881301403046,2.08776378631592,9.85354995727539,0.22863180935383,-2.88887596130371,-3.50838351249695
242,2176381427,11.16112613677979,-1.86080849170685,159.63229370117188,0.53826248645782,2.10237145423889,9.83912181854248,-1.01511466503143,-2.66873478889465,-2.61661314964294
243,2176398094,11.14473342895508,-1.89785087108612,159.60040283203125,0.47763097286224,2.09126091003418,9.82629394531250,-2.40772867202759,-2.48632097244263,-2.03370618820190
244,2176414761,11.10523414611816,-1.93262934684753,159.58177185058594,0.44349226355553,2.06238842010498,9.81173992156982,-3.76985049247742,-2.19849801063538,-1.28235757350922
245,2176431428,11.04196262359619,-1.96475148200989,159.57553100585938,0.49480393528938,2.04500269889832,9.76511478424072,-5.17279863357544,-1.89944422245026,-0.58588421344757
246,2176448095,10.95593643188477,-1.99294853210449,159.57998657226562,0.55405777692795,2.00060915946960,9.74319553375244,-6.51664638519287,-1.54536163806915,-0.00583329284564
247,2176464762,10.85019493103027,-2.01921749114990,159.59432983398438,0.58043605089188,1.95385158061981,9.72177600860596,-7.67975902557373,-1.32030308246613,0.55354177951813
248,2176481429,10.72687911987305,-2.04065895080566,159.61968994140625,0.60116893053055,1.90008413791656,9.70292186737061,-8.71137428283691,-0.91375243663788,1.14687287807465
249,2176498096,10.58967018127441,-2.05749821662903,159.65693664550781,0.59064608812332,1.84705543518066,9.68661499023438,-9.51922512054443,-0.51441204547882,1.79118621349335
250,2176514763,10.44135951995850,-2.06857514381409,159.70478820800781,0.55735230445862,1.74605238437653,9.67191410064697,-10.16254043579102,-0.06300086528063,2.35147738456726
251,2176531430,10.28675842285156,-2.07640385627747,159.76412963867188,0.53735798597336,1.68287837505341,9.65760803222656,-10.51541996002197,0.24488312005997,2.99585461616516
252,2176548097,10.12838268280029,-2.07965135574341,159.83436584472656,0.59560871124268,1.64943003654480,9.64967346191406,-10.71783161163330,0.62094819545746,3.58777117729187
253,2176564764,9.96844196319580,-2.07642459869385,159.91560363769531,0.60981261730194,1.64392316341400,9.66165256500244,-10.78801631927490,1.10789060592651,4.17442321777344
254,2176581431,9.80769538879395,-2.06933665275574,160.00914001464844,0.55008906126022,1.61738741397858,9.65854835510254,-10.80996704101562,1.44978189468384,4.86318826675415
255,2176598098,9.64687824249268,-2.05682373046875,160.11404418945312,0.47475144267082,1.56521654129028,9.63926219940186,-10.79097461700439,1.87094438076019,5.48314332962036
256,2176614765,9.48770618438721,-2.04093837738037,160.23054504394531,0.48454520106316,1.53458929061890,9.65339946746826,-10.66996669769287,2.16802620887756,6.13990449905396
257,2176631432,9.32999897003174,-2.02032279968262,160.35873413085938,0.49141919612885,1.53991758823395,9.66521453857422,-10.55857849121094,2.54430317878723,6.79228687286377
258,2176648099,9.17320346832275,-1.99672412872314,160.49728393554688,0.51099401712418,1.53753435611725,9.69566917419434,-10.48563289642334,2.80121111869812,7.38446617126465
259,2176664766,9.01570415496826,-1.96942257881165,160.64755249023438,0.45285332202911,1.52190458774567,9.70151329040527,-10.50748157501221,3.10907649993896,8.05072975158691
260,2176681433,8.85728549957275,-1.93878269195557,160.80802917480469,0.44827538728714,1.50143516063690,9.72176361083984,-10.54676628112793,3.37898969650269,8.63720321655273
261,2176698100,8.69813060760498,-1.90506875514984,160.97924804687500,0.50319224596024,1.48122930526733,9.72466182708740,-10.57547187805176,3.63279271125793,9.24907302856445
262,2176714767,8.53586292266846,-1.86847686767578,161.15998840332031,0.52297717332840,1.47170758247375,9.74687004089355,-10.74938297271729,3.86242413520813,9.80082225799561
263,2176731434,8.36968994140625,-1.83238458633423,161.34870910644531,0.52839142084122,1.44394993782043,9.74581146240234,-10.97567272186279,3.87343740463257,10.29210186004639
264,2176748101,8.19736385345459,-1.79376304149628,161.54740905761719,0.51727032661438,1.46413886547089,9.79950332641602,-11.33378887176514,4.07629013061523,10.86987209320068
265,2176764768,8.01972866058350,-1.75485885143280,161.75526428222656,0.47391244769096,1.41399908065796,9.80338573455811,-11.64333248138428,4.13733863830566,11.42376041412354
266,2176781435,7.83290719985962,-1.71478259563446,161.96847534179688,0.47087657451630,1.38452446460724,9.79573440551758,-12.19414806365967,4.21246051788330,11.74379253387451
267,2176798102,7.63695335388184,-1.67493247985840,162.18989562988281,0.45940199494362,1.33858239650726,9.82383441925049,-12.73674106597900,4.22371816635132,12.25151443481445
268,2176814769,7.43303203582764,-1.63711380958557,162.41555786132812,0.42297533154488,1.29105329513550,9.81698322296143,-13.21675109863281,4.09177494049072,12.53365325927734
269,2176831436,7.22240591049194,-1.59894001483917,162.64717102050781,0.35247716307640,1.21706044673920,9.83381271362305,-13.61789703369141,4.11113691329956,12.90113162994385
270,2176848103,7.00812578201294,-1.56038117408752,162.88365173339844,0.34377849102020,1.16019749641418,9.86194229125977,-13.83876323699951,4.11912298202515,13.20221614837646
271,2176864770,6.79046249389648,-1.52449214458466,163.12487792968750,0.36093479394913,1.09249532222748,9.84352779388428,-14.04356384277344,3.94183158874512,13.51909923553467
272,2176881437,6.57524585723877,-1.49011647701263,163.36769104003906,0.32447373867035,0.99936199188232,9.89484024047852,-13.90296459197998,3.80977249145508,13.64419174194336
273,2176898104,6.36192798614502,-1.45744454860687,163.61291503906250,0.29508399963379,0.91103059053421,9.91038703918457,-13.79396152496338,3.67044591903687,13.80937576293945
274,2176914771,6.15382480621338,-1.42720568180084,163.85838317871094,0.27788543701172,0.88486307859421,9.94611740112305,-13.48819828033447,3.47376561164856,13.85394096374512
275,2176931438,5.95291566848755,-1.39925289154053,164.10534667968750,0.24994817376137,0.84005296230316,9.94256305694580,-13.06153964996338,3.29382300376892,13.97004127502441
276,2176948105,5.75984954833984,-1.37454676628113,164.34930419921875,0.22754427790642,0.79254174232483,9.96986579895020,-12.60187911987305,3.03116416931152,13.82266426086426
277,2176964772,5.57649612426758,-1.35316467285156,164.59085083007812,0.24586418271065,0.74008142948151,9.98318767547607,-12.02765464782715,2.77075982093811,13.70763874053955
278,2176981439,5.40500926971436,-1.33317494392395,164.82867431640625,0.25453919172287,0.65059679746628,9.97821617126465,-11.32555580139160,2.62166690826416,13.50230979919434
279,2176998106,5.25034332275391,-1.31478393077850,165.06027221679688,0.24651454389095,0.52890032529831,9.99066734313965,-10.32931137084961,2.45042061805725,13.14810085296631
280,2177014773,5.11670923233032,-1.30007910728455,165.28575134277344,0.27991360425949,0.45994910597801,10.00834083557129,-9.07800102233887,2.16211080551147,12.80447769165039
281,2177031440,5.00808238983154,-1.28724431991577,165.50326538085938,0.35795649886131,0.41247692704201,10.01310062408447,-7.59114217758179,1.97879993915558,12.34746837615967
282,2177048107,4.92452526092529,-1.27791082859039,165.71287536621094,0.44223767518997,0.36945107579231,10.04837989807129,-6.09957265853882,1.70662677288055,11.89539146423340
283,2177064774,4.86712646484375,-1.27058506011963,165.91416931152344,0.42672741413116,0.34092125296593,10.05243587493896,-4.54071807861328,1.52964234352112,11.41279506683350
284,2177081441,4.83412599563599,-1.26659572124481,166.10585021972656,0.41750249266624,0.37735050916672,10.07488632202148,-3.09002637863159,1.27113318443298,10.85351467132568
285,2177098108,4.82565259933472,-1.26502442359924,166.28903198242188,0.43259283900261,0.39771294593811,10.08735179901123,-1.62910258769989,1.07947313785553,10.35872650146484
286,2177114775,4.83817481994629,-1.26571559906006,166.46769714355469,0.38850852847099,0.45904910564423,10.10583209991455,-0.37410557270050,0.92250561714172,10.10056304931641
287,2177131442,4.86787796020508,-1.27100086212158,166.64025878906250,0.35589784383774,0.50874519348145,10.13789176940918,0.64993524551392,0.62025010585785,9.76018333435059
288,2177148109,4.91004133224487,-1.27845895290375,166.80557250976562,0.28136375546455,0.55819660425186,10.15000724792480,1.38973271846771,0.45968407392502,9.33403873443604
289,2177164776,4.95827102661133,-1.28710806369781,166.96595764160156,0.22508193552494,0.62565046548843,10.12867641448975,1.74897634983063,0.37015482783318,9.04572868347168
290,2177181443,5.00362730026245,-1.29874789714813,167.11904907226562,0.23479039967060,0.69523859024048,10.11998653411865,1.56858599185944,0.16105267405510,8.62614059448242
291,2177198110,5.03700923919678,-1.31171500682831,167.26554870605469,0.27767276763916,0.80957990884781,10.10949325561523,0.84378504753113,0.05368423461914,8.24243831634521
292,2177214777,5.04879713058472,-1.32570219039917,167.40615844726562,0.20286633074284,0.88608449697495,10.10016727447510,-0.45846104621887,-0.03577454760671,7.89693498611450
293,2177231444,5.03143405914307,-1.34155118465424,167.53720092773438,0.16189864277840,0.94566243886948,10.08949279785156,-2.21941113471985,-0.19885061681271,7.33058595657349
294,2177248111,4.97847175598145,-1.35646724700928,167.66110229492188,0.14945669472218,0.97030299901962,10.03285026550293,-4.36378335952759,-0.18608267605305,6.90029239654541
295,2177264778,4.88918828964233,-1.36930334568024,167.77685546875000,0.14710892736912,0.95390349626541,10.04666614532471,-6.55375289916992,-0.11347708106041,6.40094089508057
296,2177281445,4.76504373550415,-1.38140499591827,167.88629150390625,0.10951278358698,0.89517784118652,9.97232246398926,-8.65360546112061,-0.11567339301109,6.01965236663818
297,2177298112,4.60996055603027,-1.39254772663116,167.98876953125000,0.06511332839727,0.82400900125504,9.95596218109131,-10.51982593536377,-0.10861709713936,5.59896469116211
298,2177314779,4.43454504013062,-1.40260338783264,168.08624267578125,0.08719110488892,0.72855460643768,9.92634963989258,-11.74659919738770,-0.08717928081751,5.29551839828491
299,2177331446,4.24599075317383,-1.40915513038635,168.17930603027344,0.16146443784237,0.56435066461563,9.90856361389160,-12.54034042358398,0.08353588730097,5.01526546478271
300,2177348113,4.05511140823364,-1.41540729999542,168.27067565917969,0.20446421205997,0.42254596948624,9.91702079772949,-12.68200206756592,0.07481474429369,4.91109752655029
301,2177364780,3.87216830253601,-1.41979229450226,168.35894775390625,0.19866973161697,0.29394385218620,9.91854953765869,-12.20953559875488,0.15491849184036,4.71946287155151
302,2177381447,3.70264720916748,-1.42286849021912,168.44281005859375,0.15978437662125,0.21635077893734,9.91959667205811,-11.40937995910645,0.19956144690514,4.44950437545776
303,2177398114,3.55225348472595,-1.42126297950745,168.52517700195312,0.21390762925148,0.14290849864483,9.92900848388672,-10.26351833343506,0.45922303199768,4.34479904174805
304,2177414781,3.42604947090149,-1.42150866985321,168.60389709472656,0.24772009253502,0.09181210398674,9.93643474578857,-8.81606769561768,0.32318121194839,4.13517189025879
305,2177431448,3.32475066184998,-1.41882944107056,168.67985534667969,0.31647005677223,0.05087299644947,9.95205116271973,-7.32533121109009,0.47812524437904,3.95683073997498
306,2177448115,3.25127553939819,-1.41512668132782,168.75067138671875,0.30139088630676,0.05702668055892,9.98040676116943,-5.66187286376953,0.51480245590210,3.64779925346375
307,2177464782,3.20321416854858,-1.41054582595825,168.81410217285156,0.24399185180664,0.07048725336790,10.00719356536865,-4.14789390563965,0.53766185045242,3.19855284690857
308,2177481449,3.17672848701477,-1.40602576732635,168.87358093261719,0.23461581766605,0.14305652678013,10.04475116729736,-2.85790991783142,0.51923346519470,2.96949768066406
309,2177498116,3.17079806327820,-1.39956343173981,168.92741394042969,0.27369332313538,0.17101104557514,10.04994297027588,-1.63213741779327,0.61469203233719,2.62372660636902
310,2177514783,3.18063807487488,-1.39557862281799,168.97528076171875,0.25917941331863,0.23743674159050,10.06510734558105,-0.69548082351685,0.44569936394691,2.27220487594604
311,2177531450,3.20154571533203,-1.39016938209534,169.01760864257812,0.23349720239639,0.31287533044815,10.10852432250977,-0.03841264545918,0.51417493820190,1.93835628032684
312,2177548117,3.23226261138916,-1.38529706001282,169.05509948730469,0.17441543936729,0.33320644497871,10.10148239135742,0.54297637939453,0.46545958518982,1.64497554302216
313,2177564784,3.26742506027222,-1.38208448886871,169.08639526367188,0.17390502989292,0.35318517684937,10.13152885437012,0.80014079809189,0.34615567326546,1.28229987621307
314,2177581451,3.30467224121094,-1.37908887863159,169.11383056640625,0.23463703691959,0.38556694984436,10.14706420898438,0.92034119367599,0.32108083367348,1.05131173133850
315,2177598118,3.34587907791138,-1.37789106369019,169.13639831542969,0.23022945225239,0.39637851715088,10.16460418701172,1.15021502971649,0.19674395024776,0.76573008298874
316,2177614785,3.38708972930908,-1.37827289104462,169.15681457519531,0.16845037043095,0.42744931578636,10.16489887237549,1.14757680892944,0.09542009979486,0.64225119352341
317,2177631452,3.42886400222778,-1.37893807888031,169.17453002929688,0.14594146609306,0.46513229608536,10.18989181518555,1.17749261856079,0.06894938647747,0.47780486941338
318,2177648119,3.46908664703369,-1.38146770000458,169.19036865234375,0.15638989210129,0.46970471739769,10.17979812622070,1.08080482482910,-0.04931085556746,0.38079681992531
319,2177664786,3.50520157814026,-1.38413822650909,169.20541381835938,0.22390814125538,0.49000567197800,10.16185760498047,0.83385974168777,-0.05972240865231,0.33106973767281
320,2177681453,3.53694748878479,-1.38811552524567,169.21981811523438,0.29339230060577,0.49988931417465,10.17059803009033,0.57077896595001,-0.14073537290096,0.29701763391495
321,2177698120,3.56205415725708,-1.39320671558380,169.23440551757812,0.27178817987442,0.51424074172974,10.17010402679443,0.17205971479416,-0.20648959279060,0.30957427620888
322,2177714787,3.58052039146423,-1.40090274810791,169.24772644042969,0.23041503131390,0.55825668573380,10.16617774963379,-0.22801063954830,-0.36605027318001,0.24959574639797
323,2177731454,3.58884787559509,-1.40916562080383,169.26148986816406,0.23562128841877,0.57650256156921,10.16216850280762,-0.83668357133865,-0.40006393194199,0.27365884184837
324,2177748121,3.58549213409424,-1.41690790653229,169.27381896972656,0.27360442280769,0.56702345609665,10.17259979248047,-1.53986740112305,-0.37359324097633,0.18488527834415
325,2177764788,3.56870722770691,-1.42584204673767,169.28500366210938,0.29210150241852,0.56528413295746,10.14039707183838,-2.34730792045593,-0.44929161667824,0.12392704933882
326,2177781455,3.53259730339050,-1.43498361110687,169.29624938964844,0.22038561105728,0.60296273231506,10.17597103118896,-3.50671815872192,-0.46127831935883,0.13193102180958
327,2177798122,3.47748923301697,-1.44567716121674,169.30912780761719,0.20197394490242,0.59652447700500,10.14867210388184,-4.64508771896362,-0.55016726255417,0.22943857312202
328,2177814789,3.41085100173950,-1.45642435550690,169.32318115234375,0.33461189270020,0.49526071548462,10.16993141174316,-5.33566951751709,-0.55023121833801,0.30134621262550
329,2177831456,3.34098839759827,-1.46790313720703,169.33912658691406,0.32722973823547,0.42363849282265,10.16693687438965,-5.52636909484863,-0.58813798427582,0.41548925638199
330,2177848123,3.27320790290833,-1.48006677627563,169.35862731933594,0.28301584720612,0.37912118434906,10.19753170013428,-5.39575719833374,-0.61832267045975,0.62876617908478
331,2177864790,3.21118760108948,-1.49306416511536,169.38107299804688,0.29067105054855,0.32810929417610,10.19950103759766,-5.04479932785034,-0.65995603799820,0.80895149707794
332,2177881457,3.16390585899353,-1.50695621967316,169.40721130371094,0.25392138957977,0.26721534132957,10.22284126281738,-4.15468120574951,-0.70176881551743,1.03594410419464
333,2177898124,3.13436675071716,-1.52219998836517,169.43849182128906,0.25464466214180,0.27490577101707,10.22045040130615,-3.08121395111084,-0.76810562610626,1.33992826938629
334,2177914791,3.12510776519775,-1.53730440139771,169.47453308105469,0.24159105122089,0.30502575635910,10.23192024230957,-1.85542857646942,-0.74472117424011,1.62594532966614
335,2177931458,3.13506340980530,-1.55342626571655,169.51837158203125,0.19841927289963,0.38285034894943,10.22636032104492,-0.69019180536270,-0.78079676628113,2.09371018409729
336,2177948125,3.16250419616699,-1.57026588916779,169.56922912597656,0.17505675554276,0.45867979526520,10.21743774414062,0.37190923094749,-0.80021113157272,2.52250504493713
337,2177964792,3.20344853401184,-1.58783829212189,169.62782287597656,0.13500328361988,0.56258624792099,10.21246242523193,1.19513952732086,-0.81740999221802,2.98496770858765
338,2177981459,3.25615096092224,-1.60808897018433,169.69602966308594,0.09356606006622,0.66686892509460,10.17347621917725,1.91790449619293,-0.94257932901382,3.57343244552612
339,2177998126,3.31725072860718,-1.62835943698883,169.77101135253906,0.03618235886097,0.74994194507599,10.18594074249268,2.43278431892395,-0.91719740629196,3.98109841346741
340,2178014793,3.38528084754944,-1.65007615089417,169.85505676269531,-0.03942252323031,0.82391649484634,10.15918636322021,2.86481904983521,-0.96860206127167,4.52613544464111
341,2178031460,3.45459961891174,-1.67191708087921,169.94938659667969,-0.07001642137766,0.91801983118057,10.11611843109131,2.96139192581177,-0.93437051773071,5.14167308807373
342,2178048127,3.52125358581543,-1.69496333599091,170.05651855468750,-0.04489760845900,0.98450136184692,10.11838054656982,2.82412052154541,-0.95416909456253,5.91828870773315
343,2178064794,3.57943105697632,-1.71815776824951,170.17445373535156,-0.06919911503792,1.01097798347473,10.07940196990967,2.33636522293091,-0.91747927665710,6.56595849990845
344,2178081461,3.62975287437439,-1.74275684356689,170.30784606933594,-0.07189650833607,1.04072928428650,10.04902935028076,1.89368832111359,-0.93802052736282,7.49856758117676
345,2178098128,3.67079353332520,-1.76679682731628,170.45738220214844,-0.07294332236052,1.05799734592438,10.02604103088379,1.36802601814270,-0.83814382553101,8.46117115020752
346,2178114795,3.70344853401184,-1.78874230384827,170.62371826171875,-0.03338745981455,1.01124835014343,10.02316570281982,0.89818644523621,-0.64362812042236,9.46148777008057
347,2178131462,3.72652530670166,-1.81082165241241,170.80638122558594,-0.03048859164119,0.99734723567963,9.98275375366211,0.35647773742676,-0.58483433723450,10.43657875061035
348,2178148129,3.73979544639587,-1.83150696754456,171.00209045410156,-0.06148406490684,0.96048760414124,9.95245742797852,-0.20475439727306,-0.44810074567795,11.21410179138184
349,2178164796,3.74401092529297,-1.85065233707428,171.21174621582031,-0.06875389814377,0.92881166934967,9.90301895141602,-0.71876311302185,-0.30162170529366,12.04208469390869
350,2178181463,3.73550105094910,-1.86770141124725,171.43513488769531,-0.04051389917731,0.90838998556137,9.88310241699219,-1.45272123813629,-0.12426649034023,12.85848045349121
351,2178198130,3.71355509757996,-1.88208591938019,171.67132568359375,0.01780540868640,0.85262870788574,9.85276412963867,-2.23100185394287,0.08034708350897,13.61105728149414
352,2178214797,3.67915916442871,-1.89466166496277,171.91841125488281,0.05738314241171,0.79052597284317,9.77433109283447,-2.95521426200867,0.22135789692402,14.25597381591797
353,2178231464,3.63362574577332,-1.90436375141144,172.17562866210938,0.12983730435371,0.72190183401108,9.79254913330078,-3.60084128379822,0.42059287428856,14.84863471984863
354,2178248131,3.57414364814758,-1.91008722782135,172.43983459472656,0.17635050415993,0.65514451265335,9.74476432800293,-4.42236328125000,0.67048978805542,15.25568008422852
355,2178264798,3.50174880027771,-1.91275846958160,172.71051025390625,0.19752113521099,0.61677205562592,9.72657489776611,-5.18363809585571,0.85797506570816,15.63126754760742
356,2178281465,3.41713809967041,-1.91169250011444,172.98477172851562,0.24445404112339,0.53749227523804,9.71165180206299,-5.90998983383179,1.07176458835602,15.83666992187500
357,2178298132,3.32485938072205,-1.90687716007233,173.26138305664062,0.30408748984337,0.46164035797119,9.71122741699219,-6.36663818359375,1.27879226207733,15.96385002136230
358,2178314799,3.22901391983032,-1.89891707897186,173.53967285156250,0.39643990993500,0.42749831080437,9.73253631591797,-6.57960748672485,1.44490349292755,16.05424880981445
359,2178331466,3.13039207458496,-1.88952255249023,173.81631469726562,0.40660229325294,0.39468935132027,9.74894428253174,-6.75145673751831,1.49717903137207,15.95639419555664
360,2178348133,3.03090524673462,-1.87597548961639,174.09362792968750,0.41410979628563,0.32385781407356,9.75288963317871,-6.80574321746826,1.71901082992554,15.98021507263184
361,2178364800,2.92808580398560,-1.85980737209320,174.36758422851562,0.43408811092377,0.31876540184021,9.78537750244141,-7.01587057113647,1.83681702613831,15.77745342254639
362,2178381467,2.82122445106506,-1.84121179580688,174.64015197753906,0.44431814551353,0.31062865257263,9.80848598480225,-7.26632308959961,1.94764280319214,15.69005775451660
363,2178398134,2.71385431289673,-1.81906723976135,174.90872192382812,0.38905861973763,0.26375401020050,9.81795883178711,-7.31026172637939,2.11863327026367,15.44498538970947
364,2178414801,2.60775136947632,-1.79543471336365,175.17497253417969,0.35174632072449,0.21150110661983,9.81565284729004,-7.24487304687500,2.17070412635803,15.30574226379395
365,2178431468,2.50723958015442,-1.77155327796936,175.43867492675781,0.37429550290108,0.17931009829044,9.81402969360352,-6.92039728164673,2.15073871612549,15.15527820587158
366,2178448135,2.41229033470154,-1.74674534797668,175.69886779785156,0.35884463787079,0.18429936468601,9.81792926788330,-6.59978342056274,2.16944861412048,14.94580268859863
367,2178464802,2.32461309432983,-1.72214353084564,175.95605468750000,0.35522100329399,0.17759241163731,9.84725379943848,-6.17555427551270,2.12512636184692,14.77071666717529
368,2178481469,2.24278688430786,-1.69814634323120,176.20942687988281,0.33153849840164,0.17949374020100,9.87453174591064,-5.83791351318359,2.05621457099915,14.54684448242188
369,2178498136,2.16511654853821,-1.67522323131561,176.45741271972656,0.28182220458984,0.18913990259171,9.94514274597168,-5.60373687744141,1.95868158340454,14.23207950592041
370,2178514803,2.09140634536743,-1.65220725536346,176.70387268066406,0.27084720134735,0.18222203850746,9.96291732788086,-5.37436771392822,1.94088709354401,14.13961029052734
371,2178531470,2.02233004570007,-1.63006377220154,176.94596862792969,0.23633156716824,0.20035696029663,9.94924736022949,-5.10977602005005,1.86084723472595,13.88522529602051
372,2178548137,1.95658862590790,-1.61087298393250,177.18513488769531,0.19169674813747,0.18524144589901,9.99912071228027,-4.91942787170410,1.65955042839050,13.72004032135010
373,2178564804,1.89552164077759,-1.59176135063171,177.41860961914062,0.19686652719975,0.18056701123714,10.00756931304932,-4.65427255630493,1.62708616256714,13.37921237945557
374,2178581471,1.83789443969727,-1.57613432407379,177.64820861816406,0.25782859325409,0.21122200787067,9.99294185638428,-4.45804119110107,1.39513754844666,13.15436077117920
375,2178598138,1.78337347507477,-1.56244635581970,177.87466430664062,0.24877807497978,0.21659572422504,10.02213573455811,-4.28063392639160,1.25935161113739,12.96881961822510
376,2178614805,1.73447835445404,-1.55129289627075,178.09608459472656,0.21253210306168,0.19997090101242,10.07491779327393,-3.95449376106262,1.08568453788757,12.67793464660645
377,2178631472,1.69161295890808,-1.54277408123016,178.31549072265625,0.22500683367252,0.22206929326057,10.03096675872803,-3.59878492355347,0.91211998462677,12.55916976928711
378,2178648139,1.66248095035553,-1.53800392150879,178.53007507324219,0.19690462946892,0.17605353891850,9.94745159149170,-2.78406977653503,0.67095059156418,12.27726078033447
379,2178664806,1.65166699886322,-1.53531384468079,178.74159240722656,0.17688180506229,0.12426146119833,10.12553119659424,-1.69072723388672,0.53567707538605,12.10025215148926
380,2178681473,1.66008758544922,-1.53296172618866,178.95033264160156,0.18236719071865,0.14950862526894,10.13499832153320,-0.54172164201736,0.50936639308929,11.93257045745850
381,2178698140,1.68499493598938,-1.53459346294403,179.15820312500000,0.19606384634972,0.27320855855942,10.06725406646729,0.44579568505287,0.27251285314560,11.88883876800537
382,2178714807,1.72298359870911,-1.54055404663086,179.36500549316406,0.14444552361965,0.33624249696732,10.10666465759277,1.22929489612579,0.01678913272917,11.83131790161133
383,2178731474,1.77388000488281,-1.54893457889557,179.57005310058594,0.15892764925957,0.30832573771477,10.07187080383301,2.00123643875122,-0.12233271449804,11.72911071777344
384,2178748141,1.83293187618256,-1.55873560905457,179.77313232421875,0.17301121354103,0.31217810511589,10.14701080322266,2.48961973190308,-0.19991360604763,11.61571121215820
385,2178764808,1.89834070205688,-1.56824016571045,179.97593688964844,0.14539729058743,0.40804940462112,10.07502174377441,2.87225413322449,-0.16979946196079,11.60087299346924
386,2178781475,1.96440231800079,-1.58086383342743,-179.82067871093750,0.12597541511059,0.50484162569046,10.07681560516357,2.91380429267883,-0.34243550896645,11.64022064208984
387,2178798142,2.02475261688232,-1.59606230258942,-179.61714172363281,0.06851811707020,0.53973215818405,10.04834079742432,2.57316851615906,-0.48421475291252,11.65278530120850
388,2178814809,2.07262754440308,-1.61137712001801,-179.41267395019531,0.09446908533573,0.59298342466354,10.01957130432129,1.82854282855988,-0.47808054089546,11.71092700958252
389,2178831476,2.10285186767578,-1.62571847438812,-179.20600891113281,0.11069976538420,0.63824194669724,10.05553817749023,0.77450281381607,-0.40754309296608,11.83873367309570
390,2178848143,2.11762094497681,-1.63748037815094,-178.99703979492188,0.10907229781151,0.60887509584427,10.02304267883301,-0.14717704057693,-0.24349363148212,11.97710514068604
391,2178864810,2.11949539184570,-1.65002000331879,-178.78511047363281,0.10735212266445,0.51587331295013,10.05556488037109,-0.91365039348602,-0.28254026174545,12.15019702911377
392,2178881477,2.11266875267029,-1.66514575481415,-178.57147216796875,0.14064930379391,0.46990200877190,10.00769138336182,-1.43093740940094,-0.43548655509949,12.26107406616211
393,2178898144,2.09993219375610,-1.67886590957642,-178.35272216796875,0.17938330769539,0.44796454906464,10.00304794311523,-1.77401983737946,-0.34271734952927,12.56228065490723
394,2178914811,2.08962249755859,-1.68971645832062,-178.13208007812500,0.15393875539303,0.34720048308372,10.00913429260254,-1.62336575984955,-0.16970342397690,12.67096614837646
395,2178931478,2.08971738815308,-1.69729673862457,-177.90963745117188,0.15874685347080,0.20281596481800,9.97229194641113,-0.99383085966110,0.02913445606828,12.77143383026123
396,2178948145,2.10981845855713,-1.70422863960266,-177.68565368652344,0.20576399564743,0.10390680283308,9.97818279266357,0.21075421571732,0.07233030349016,12.85832595825195
397,2178964812,2.15390944480896,-1.71079456806183,-177.45991516113281,0.27770367264748,0.08259629458189,9.96809673309326,1.65500390529633,0.10547315329313,12.96828079223633
398,2178981479,2.22378396987915,-1.71646904945374,-177.23396301269531,0.29493060708046,0.07959956675768,9.99227428436279,3.20422720909119,0.17311632633209,12.97568225860596
399,2178998146,2.31553244590759,-1.71875250339508,-177.00819396972656,0.32733967900276,0.08775018155575,10.00395011901855,4.51740455627441,0.39402601122856,12.95717906951904
400,2179014813,2.42279744148254,-1.71893155574799,-176.78334045410156,0.38384583592415,0.13545450568199,10.01235198974609,5.44809436798096,0.54178589582443,12.89485168457031
401,2179031480,2.53908300399780,-1.72003412246704,-176.56057739257812,0.40049692988396,0.21865326166153,10.02550220489502,5.98573017120361,0.50731110572815,12.77529048919678
402,2179048147,2.65507698059082,-1.71847677230835,-176.33976745605469,0.41558486223221,0.29663246870041,10.06483554840088,5.96484279632568,0.68855947256088,12.64909553527832
403,2179064814,2.76224732398987,-1.71468698978424,-176.12197875976562,0.45740923285484,0.38652464747429,10.09662055969238,5.42924928665161,0.83930951356888,12.45959377288818
404,2179081481,2.85570907592773,-1.70773577690125,-175.90753173828125,0.51303929090500,0.44410696625710,10.10779190063477,4.59919786453247,1.04256558418274,12.24601459503174
405,2179098148,2.93159008026123,-1.70081937313080,-175.69680786132812,0.52615594863892,0.48529452085495,10.09969234466553,3.53629565238953,1.04825139045715,12.02470588684082
406,2179114815,2.98946094512939,-1.69408571720123,-175.49085998535156,0.46872153878212,0.52630913257599,10.07556247711182,2.44481682777405,1.03783345222473,11.73585414886475
407,2179131482,3.03159689903259,-1.68516540527344,-175.28932189941406,0.42559453845024,0.52252751588821,10.11407852172852,1.49056375026703,1.16574335098267,11.46381950378418
408,2179148149,3.05724596977234,-1.67330288887024,-175.09396362304688,0.40165790915489,0.49892374873161,10.14542102813721,0.48787730932236,1.32971584796906,11.08475208282471
409,2179164816,3.06864047050476,-1.66081094741821,-174.90437316894531,0.39421889185905,0.48528036475182,10.13521099090576,-0.38015019893646,1.35329866409302,10.74188041687012
410,2179181483,3.06865692138672,-1.64833974838257,-174.71896362304688,0.36271882057190,0.48871752619743,10.11712932586670,-1.07264733314514,1.34013366699219,10.49006843566895
411,2179198150,3.06171226501465,-1.63560736179352,-174.53813171386719,0.36943891644478,0.41561031341553,10.14978027343750,-1.50114178657532,1.33996725082397,10.21110820770264
412,2179214817,3.05168676376343,-1.62260365486145,-174.36383056640625,0.34789952635765,0.37812173366547,10.16896915435791,-1.69949948787689,1.33358991146088,9.81709575653076
413,2179231484,3.04212331771851,-1.60733819007874,-174.19638061523438,0.28715482354164,0.33179241418839,10.16590118408203,-1.68683373928070,1.44568347930908,9.40417957305908
414,2179248151,3.03627991676331,-1.59413599967957,-174.03330993652344,0.28547495603561,0.31518590450287,10.16190910339355,-1.47231447696686,1.30700361728668,9.15126705169678
415,2179264818,3.03481721878052,-1.58233523368835,-173.87391662597656,0.27902790904045,0.33261325955391,10.14865112304688,-1.21748054027557,1.20996975898743,8.93473529815674
416,2179281485,3.03576660156250,-1.57060086727142,-173.71595764160156,0.25383263826370,0.32023355364799,10.15052890777588,-1.07692456245422,1.20217728614807,8.84736442565918
417,2179298152,3.03728437423706,-1.55795550346375,-173.56256103515625,0.24391841888428,0.32172259688377,10.16142177581787,-1.05293846130371,1.24167203903198,8.57310485839844
418,2179314819,3.04379987716675,-1.54524099826813,-173.41264343261719,0.25241607427597,0.28040429949760,10.17849445343018,-0.75937825441360,1.23535835742950,8.35977554321289
419,2179331486,3.05726981163025,-1.53477776050568,-173.26391601562500,0.21737886965275,0.23711298406124,10.19202613830566,-0.34651428461075,1.09776687622070,8.29777908325195
420,2179348153,3.08034253120422,-1.52867209911346,-173.11628723144531,0.17785476148129,0.25323179364204,10.17084980010986,0.22683893144131,0.83621650934219,8.24417972564697
421,2179364820,3.10985493659973,-1.52336931228638,-172.97114562988281,0.21996888518333,0.28428423404694,10.16925621032715,0.60939025878906,0.78340291976929,8.10252761840820
422,2179381487,3.14707136154175,-1.51961135864258,-172.82666015625000,0.25818014144897,0.27734088897705,10.18249607086182,1.06985545158386,0.69355356693268,8.06567096710205
423,2179398154,3.19295072555542,-1.51610493659973,-172.68507385253906,0.25677803158760,0.26536247134209,10.16795825958252,1.58457469940186,0.67508035898209,7.88932085037231
424,2179414821,3.24758958816528,-1.51663839817047,-172.54370117187500,0.26216748356819,0.26354560256004,10.14062976837158,2.11042904853821,0.43911060690880,7.88983345031738
425,2179431488,3.31139993667603,-1.51960182189941,-172.40441894531250,0.26678457856178,0.29776382446289,10.09655761718750,2.65849685668945,0.29596766829491,7.77530145645142
426,2179448155,3.38624525070190,-1.52289342880249,-172.26789855957031,0.24967938661575,0.30017068982124,10.15923881530762,3.31593632698059,0.27609214186668,7.60728120803833
427,2179464822,3.46735763549805,-1.52614438533783,-172.13246154785156,0.23589980602264,0.32081714272499,10.14080619812012,3.69103384017944,0.28562006354332,7.54244232177734
428,2179481489,3.55273699760437,-1.53242278099060,-171.99851989746094,0.22263164818287,0.38344189524651,10.10022354125977,3.94654607772827,0.11016023904085,7.46509122848511
429,2179498156,3.63860225677490,-1.54184257984161,-171.86793518066406,0.24771392345428,0.46103626489639,10.09046936035156,3.97071266174316,-0.07804831862450,7.27562236785889
430,2179514823,3.72101712226868,-1.55338954925537,-171.73971557617188,0.24004000425339,0.50280845165253,10.10723495483398,3.76214766502380,-0.20352493226528,7.14092350006104
431,2179531490,3.79191565513611,-1.56323993206024,-171.61134338378906,0.22879308462143,0.56312227249146,10.06258869171143,3.07262778282166,-0.09140532463789,7.14544534683228
432,2179548157,3.84668707847595,-1.57310020923615,-171.48558044433594,0.20055751502514,0.61961001157761,10.03983592987061,2.10116338729858,-0.09423553198576,6.98942422866821
433,2179564824,3.88506507873535,-1.58545196056366,-171.36105346679688,0.23503570258617,0.63610744476318,10.03757667541504,1.11693167686462,-0.24246907234192,6.92675113677979
434,2179581491,3.90335273742676,-1.59900355339050,-171.23805236816406,0.23987390100956,0.64816534519196,10.02400875091553,-0.08953560888767,-0.31640014052391,6.83619737625122
435,2179598158,3.90077185630798,-1.61086916923523,-171.11524963378906,0.21305754780769,0.62932008504868,10.00555706024170,-1.34083163738251,-0.21598555147648,6.81974220275879
436,2179614825,3.88220739364624,-1.62385618686676,-170.99270629882812,0.21550403535366,0.59078013896942,9.99535655975342,-2.29881024360657,-0.28545990586281,6.80889320373535
437,2179631492,3.84832882881165,-1.63646829128265,-170.87002563476562,0.25543779134750,0.56665259599686,9.97779560089111,-3.21634745597839,-0.26685234904289,6.81550216674805
438,2179648159,3.80498147010803,-1.64857184886932,-170.74760437011719,0.24296584725380,0.53731971979141,9.97180271148682,-3.78334856033325,-0.24166226387024,6.79986476898193
439,2179664826,3.75657558441162,-1.66083025932312,-170.62294006347656,0.24868462979794,0.49167779088020,9.97899246215820,-4.08158254623413,-0.24848805367947,6.93218088150024
440,2179681493,3.70441246032715,-1.67113924026489,-170.49899291992188,0.26266959309578,0.48886302113533,9.96750926971436,-4.30687189102173,-0.14163184165955,6.88147974014282
441,2179698160,3.64845347404480,-1.68074309825897,-170.37539672851562,0.28036245703697,0.48704046010971,9.94404029846191,-4.53390979766846,-0.10740687698126,6.85902452468872
442,2179714827,3.58916497230530,-1.68965661525726,-170.24974060058594,0.25188860297203,0.50345093011856,9.93190479278564,-4.72895717620850,-0.06613840162754,6.97815561294556
443,2179731494,3.52568268775940,-1.69876146316528,-170.12249755859375,0.26712924242020,0.51750540733337,9.93979072570801,-4.97615909576416,-0.07976438105106,7.07188606262207
444,2179748161,3.45765447616577,-1.70788776874542,-169.99362182617188,0.27571523189545,0.51654028892517,9.95470523834229,-5.24522590637207,-0.08411213010550,7.17211437225342
445,2179764828,3.38475370407104,-1.71450877189636,-169.86447143554688,0.26372855901718,0.48796576261520,9.96187210083008,-5.53643035888672,0.05726360529661,7.17933750152588
446,2179781495,3.30962133407593,-1.72253549098969,-169.73432922363281,0.26234173774719,0.46626806259155,9.95974826812744,-5.66789436340332,-0.03334134072065,7.24518108367920
447,2179798162,3.23378324508667,-1.73040759563446,-169.60305786132812,0.25013053417206,0.46674782037735,9.91803264617920,-5.70691442489624,-0.03098496980965,7.30995607376099
448,2179814829,3.15916705131531,-1.73640835285187,-169.47164916992188,0.26253229379654,0.45581769943237,9.97184658050537,-5.63304758071899,0.07078071683645,7.31236410140991
449,2179831496,3.08805370330811,-1.74295639991760,-169.33938598632812,0.24855044484138,0.46657040715218,9.95926475524902,-5.42071676254272,0.03110662661493,7.36562395095825
450,2179848163,3.02209568023682,-1.74878501892090,-169.20779418945312,0.24011577665806,0.43796771764755,9.98074245452881,-5.11162376403809,0.06214922666550,7.32550239562988
451,2179864830,2.96199631690979,-1.75494527816772,-169.07643127441406,0.25888273119926,0.46102780103683,9.96363258361816,-4.76015329360962,0.03245129808784,7.31128835678101
452,2179881497,2.90679097175598,-1.76204442977905,-168.94470214843750,0.28405654430389,0.46128377318382,9.98517513275146,-4.46509504318237,-0.03088252060115,7.33305788040161
453,2179898164,2.85581159591675,-1.76911926269531,-168.81353759765625,0.25688463449478,0.46451470255852,9.97982883453369,-4.21163129806519,-0.03836142644286,7.30003023147583
454,2179914831,2.80739665031433,-1.77500319480896,-168.68070983886719,0.26964092254639,0.47707372903824,9.99440288543701,-4.05447101593018,0.03069682233036,7.39702558517456
455,2179931498,2.76344156265259,-1.78174901008606,-168.54711914062500,0.27206999063492,0.47505855560303,10.00565910339355,-3.78494930267334,-0.02500440180302,7.44506263732910
456,2179948165,2.72247767448425,-1.78930056095123,-168.41098022460938,0.28842547535896,0.48627471923828,10.00060749053955,-3.59989786148071,-0.07254158705473,7.59654855728149
457,2179964832,2.68450736999512,-1.79890727996826,-168.27314758300781,0.28913050889969,0.47351244091988,9.96332645416260,-3.41707420349121,-0.19607163965702,7.70898866653442
458,2179981499,2.65097022056580,-1.80757796764374,-168.13261413574219,0.28098845481873,0.49154832959175,9.98089313507080,-3.14460611343384,-0.13828939199448,7.86622381210327
459,2179998166,2.62101054191589,-1.81657361984253,-167.98924255371094,0.27909266948700,0.49342709779739,10.01077461242676,-2.92395329475403,-0.15438701212406,8.03347778320312
460,2180014833,2.59524083137512,-1.82434225082397,-167.84272766113281,0.26556286215782,0.50602072477341,9.97480106353760,-2.66630172729492,-0.07695978134871,8.22189712524414
461,2180031500,2.57547926902771,-1.83362007141113,-167.69441223144531,0.26234138011932,0.50982081890106,9.97255134582520,-2.30103921890259,-0.16592550277710,8.33644962310791
462,2180048167,2.55913257598877,-1.84095072746277,-167.54418945312500,0.28686752915382,0.52790194749832,10.01784992218018,-2.09243631362915,-0.04758200794458,8.44304847717285
463,2180064834,2.54399418830872,-1.85003745555878,-167.39282226562500,0.30570060014725,0.57242852449417,9.97256851196289,-2.01602053642273,-0.15150552988052,8.51430320739746
464,2180081501,2.52920532226562,-1.85861122608185,-167.23965454101562,0.27275094389915,0.58487766981125,9.99607944488525,-1.99230349063873,-0.11942564696074,8.62150573730469
465,2180098168,2.51293802261353,-1.86869406700134,-167.08386230468750,0.26399391889572,0.61176830530167,9.95074176788330,-2.07421970367432,-0.20561881363392,8.77918434143066
466,2180114835,2.49269556999207,-1.87837135791779,-166.92768859863281,0.26319831609726,0.61697232723236,9.97884941101074,-2.31186699867249,-0.18320770561695,8.80169773101807
467,2180131502,2.47007727622986,-1.88677060604095,-166.76849365234375,0.24734365940094,0.62231200933456,9.98288726806641,-2.44751858711243,-0.10207304358482,8.98521995544434
468,2180148169,2.44389986991882,-1.89539229869843,-166.60780334472656,0.22767117619514,0.61139482259750,9.93899536132812,-2.65887451171875,-0.11646738648415,9.07250785827637
469,2180164836,2.41647410392761,-1.90497398376465,-166.44517517089844,0.22668503224850,0.61251097917557,9.94403266906738,-2.72775936126709,-0.17344284057617,9.18955612182617
470,2180181503,2.38980102539062,-1.91426837444305,-166.28041076660156,0.23858748376369,0.59597247838974,9.92595672607422,-2.67864727973938,-0.15665373206139,9.31941413879395
471,2180198170,2.36384320259094,-1.92118775844574,-166.11396789550781,0.25262641906738,0.56829500198364,9.91970634460449,-2.63199400901794,-0.01429829373956,9.41550064086914
472,2180214837,2.34152150154114,-1.92836332321167,-165.94480895996094,0.24473106861115,0.58280438184738,9.93893051147461,-2.40711450576782,-0.02688694000244,9.57651424407959
473,2180231504,2.31961441040039,-1.93328893184662,-165.77337646484375,0.25245955586433,0.55862838029861,9.91930103302002,-2.37828731536865,0.10808562487364,9.70314407348633
474,2180248171,2.30084705352783,-1.93791377544403,-165.60052490234375,0.24980722367764,0.53176993131638,9.93381595611572,-2.18660187721252,0.12652677297592,9.79159832000732
475,2180264838,2.28519940376282,-1.94146394729614,-165.42500305175781,0.26329031586647,0.52945995330811,9.90642452239990,-1.99377620220184,0.19395223259926,9.94911479949951
476,2180281505,2.27268457412720,-1.94393348693848,-165.24964904785156,0.26327735185623,0.50173169374466,9.90859889984131,-1.80656695365906,0.25512179732323,9.93840312957764
477,2180298172,2.26294207572937,-1.94385838508606,-165.07215881347656,0.26014313101768,0.49075338244438,9.92328262329102,-1.63617801666260,0.41085979342461,10.05664348602295
478,2180314839,2.25642871856689,-1.94236946105957,-164.89530944824219,0.27887699007988,0.49283602833748,9.91238689422607,-1.44514584541321,0.49165517091751,10.01734161376953
479,2180331506,2.25634646415710,-1.93944120407104,-164.71731567382812,0.26682534813881,0.46116158366203,9.88585948944092,-1.05797767639160,0.58078092336655,10.08363342285156
480,2180348173,2.26129007339478,-1.93550336360931,-164.54066467285156,0.26650303602219,0.43396595120430,9.92807865142822,-0.75951296091080,0.63767963647842,10.00121307373047
481,2180364840,2.27444601058960,-1.92993187904358,-164.36457824707031,0.26040044426918,0.42221054434776,9.92664527893066,-0.26988753676414,0.73627573251724,9.95913028717041
482,2180381507,2.29271721839905,-1.92181396484375,-164.19021606445312,0.27282741665840,0.40365800261497,9.96420192718506,0.03224639967084,0.88745468854904,9.85386085510254
483,2180398174,2.31665515899658,-1.91267561912537,-164.01585388183594,0.28000247478485,0.40100219845772,9.95910072326660,0.36979624629021,0.95165294408798,9.85071086883545
484,2180414841,2.34621739387512,-1.90393996238708,-163.84463500976562,0.26778802275658,0.39454692602158,9.96807765960693,0.69945752620697,0.92546409368515,9.66272735595703
485,2180431508,2.38137245178223,-1.89325499534607,-163.67398071289062,0.26960223913193,0.40597024559975,9.98257446289062,1.03095650672913,1.04609346389771,9.62049865722656
486,2180448175,2.41901278495789,-1.88161230087280,-163.50527954101562,0.25141671299934,0.38994106650352,10.00263786315918,1.17452836036682,1.10514354705811,9.50376796722412
487,2180464842,2.45878148078918,-1.86949968338013,-163.33804321289062,0.26207375526428,0.40240159630775,10.00203609466553,1.29627823829651,1.13563525676727,9.41111278533936
488,2180481509,2.50094318389893,-1.85651028156281,-163.17411804199219,0.26491981744766,0.37862259149551,9.99666118621826,1.43212187290192,1.18712341785431,9.21566963195801
489,2180498176,2.54551339149475,-1.84144723415375,-163.01174926757812,0.24863702058792,0.37923324108124,10.01886463165283,1.56936740875244,1.31402158737183,9.11485862731934
490,2180514843,2.59130597114563,-1.82537090778351,-162.85324096679688,0.25868821144104,0.39018905162811,10.02354240417480,1.63300204277039,1.37195754051208,8.87299633026123
491,2180531510,2.63896632194519,-1.80961298942566,-162.69688415527344,0.25528582930565,0.38592386245728,10.02732276916504,1.73857772350311,1.35505306720734,8.74796867370605
492,2180548177,2.68740773200989,-1.79414474964142,-162.54318237304688,0.22862863540649,0.37953901290894,10.05005931854248,1.77793169021606,1.33755958080292,8.58902931213379
493,2180564844,2.73564553260803,-1.77782571315765,-162.39196777343750,0.23001652956009,0.38454881310463,10.03605556488037,1.75786387920380,1.38929724693298,8.43257427215576
494,2180581511,2.78364825248718,-1.76077640056610,-162.24499511718750,0.22021041810513,0.40285852551460,10.05020713806152,1.73275053501129,1.42803621292114,8.18032646179199
495,2180598178,2.83038115501404,-1.74341642856598,-162.10006713867188,0.23494815826416,0.38372027873993,10.06316661834717,1.64988112449646,1.44709229469299,8.05565738677979
496,2180614845,2.87449288368225,-1.72563552856445,-161.95985412597656,0.25558915734291,0.37159398198128,10.07018661499023,1.48246324062347,1.46618640422821,7.77313518524170
497,2180631512,2.91698575019836,-1.70785713195801,-161.82179260253906,0.25435143709183,0.35782310366631,10.06861495971680,1.37765622138977,1.46450889110565,7.63859272003174
498,2180648179,2.95937585830688,-1.68769264221191,-161.68812561035156,0.25513327121735,0.35344219207764,10.06411838531494,1.36180830001831,1.60056984424591,7.36657857894897
499,2180664846,2.99982833862305,-1.66888272762299,-161.55793762207031,0.26223218441010,0.35084217786789,10.08351898193359,1.23599886894226,1.51419115066528,7.16426467895508
500,2180681513,3.03919959068298,-1.64679419994354,-161.42980957031250,0.25508770346642,0.35248890519142,10.06787204742432,1.16580688953400,1.70941090583801,7.02805471420288
501,2180698180,3.07794547080994,-1.62363874912262,-161.30618286132812,0.27788364887238,0.35558909177780,10.06899642944336,1.11682283878326,1.76427352428436,6.75781631469727
502,2180714847,3.11579227447510,-1.60149455070496,-161.18704223632812,0.28474107384682,0.33242478966713,10.05833339691162,1.05323922634125,1.69400513172150,6.48767852783203
503,2180731514,3.15362143516541,-1.57924711704254,-161.07223510742188,0.28665339946747,0.34075808525085,10.09177017211914,1.04188644886017,1.69086122512817,6.22762680053711
504,2180748181,3.19009947776794,-1.55575430393219,-160.96116638183594,0.28009054064751,0.34965455532074,10.09606361389160,0.95274138450623,1.75745391845703,5.99644565582275
505,2180764848,3.22454667091370,-1.53242075443268,-160.85415649414062,0.25402763485909,0.37036532163620,10.08713912963867,0.82121998071671,1.73805236816406,5.75500726699829
506,2180781515,3.25705051422119,-1.50834262371063,-160.75083923339844,0.26564788818359,0.37464237213135,10.10813426971436,0.69651174545288,1.77461421489716,5.52901363372803
507,2180798182,3.28739380836487,-1.48348128795624,-160.65251159667969,0.23146899044514,0.37101423740387,10.09101963043213,0.55635917186737,1.80733489990234,5.22997283935547
508,2180814849,3.31512069702148,-1.45912384986877,-160.55816650390625,0.26384899020195,0.35781434178352,10.11205673217773,0.39132365584373,1.76639294624329,4.98968744277954
509,2180831516,3.33990907669067,-1.43446338176727,-160.46757507324219,0.26279228925705,0.35091990232468,10.10688209533691,0.20729637145996,1.77447330951691,4.76563978195190
510,2180848183,3.36414194107056,-1.41243731975555,-160.37908935546875,0.25344535708427,0.35241729021072,10.13384437561035,0.16823703050613,1.61116707324982,4.64560604095459
511,2180864850,3.38569545745850,-1.38976979255676,-160.29560852050781,0.28806817531586,0.38036319613457,10.12256145477295,-0.00097968592308,1.63421845436096,4.34547710418701
512,2180881517,3.40531754493713,-1.36801314353943,-160.21383666992188,0.29558157920837,0.37689933180809,10.11671352386475,-0.12136577814817,1.57588541507721,4.24494600296021
513,2180898184,3.42280125617981,-1.34806799888611,-160.13618469238281,0.27077680826187,0.38389909267426,10.13537406921387,-0.25652396678925,1.45430827140808,4.00424432754517
514,2180914851,3.43723082542419,-1.33074438571930,-160.06237792968750,0.28496873378754,0.40828797221184,10.15104866027832,-0.44715294241905,1.28514289855957,3.78322696685791
515,2180931518,3.44884824752808,-1.31551885604858,-159.98951721191406,0.27816069126129,0.42338255047798,10.16093444824219,-0.61848908662796,1.15682339668274,3.73005461692810
516,2180948185,3.45790743827820,-1.29989397525787,-159.91731262207031,0.28725945949554,0.42323297262192,10.15740203857422,-0.77290815114975,1.17954182624817,3.68934345245361
517,2180964852,3.46492075920105,-1.28688323497772,-159.84664916992188,0.29021993279457,0.42103394865990,10.15662479400635,-0.89974230527878,1.01829695701599,3.61281275749207
518,2180981519,3.46825766563416,-1.27795505523682,-159.77856445312500,0.27555540204048,0.42694947123528,10.15871334075928,-1.12366127967834,0.76512825489044,3.46812605857849
519,2180998186,3.46993875503540,-1.27089262008667,-159.71249389648438,0.27125516533852,0.44256833195686,10.17525863647461,-1.22661137580872,0.64595228433609,3.35352206230164
520,2181014853,3.47040605545044,-1.26775765419006,-159.64628601074219,0.25301909446716,0.46690654754639,10.15237903594971,-1.29869842529297,0.41231328248978,3.37736773490906
521,2181031520,3.46757411956787,-1.26722919940948,-159.57936096191406,0.24202932417393,0.48750054836273,10.14476490020752,-1.49719691276550,0.25830408930779,3.42977118492126
522,2181048187,3.46286010742188,-1.26941061019897,-159.51271057128906,0.23504284024239,0.50047081708908,10.14568614959717,-1.60909879207611,0.09536889195442,3.42357301712036
523,2181064854,3.45343399047852,-1.27337384223938,-159.44474792480469,0.23813010752201,0.52390307188034,10.16395282745361,-1.89018547534943,-0.00772863347083,3.50660967826843
524,2181081521,3.43971395492554,-1.28159499168396,-159.37626647949219,0.25355157256126,0.54392439126968,10.17083644866943,-2.14736223220825,-0.26108947396278,3.55545234680176
525,2181098188,3.42112302780151,-1.29390895366669,-159.30690002441406,0.24414165318012,0.54950004816055,10.14396953582764,-2.43755412101746,-0.50394910573959,3.62186622619629
526,2181114855,3.39631342887878,-1.30691397190094,-159.23686218261719,0.26463314890862,0.58827078342438,10.10947132110596,-2.80877208709717,-0.54446840286255,3.66239881515503
527,2181131522,3.36529111862183,-1.32329809665680,-159.16442871093750,0.27538841962814,0.60738193988800,10.14444923400879,-3.17768454551697,-0.74025177955627,3.82444953918457
528,2181148189,3.32987475395203,-1.34249615669250,-159.08973693847656,0.25624817609787,0.61307799816132,10.10628986358643,-3.43709039688110,-0.90293097496033,3.96580672264099
529,2181164856,3.28863596916199,-1.36400294303894,-159.01310729980469,0.25598728656769,0.61155939102173,10.11788368225098,-3.78255414962769,-1.03823018074036,4.08750581741333
530,2181181523,3.24081563949585,-1.38829100131989,-158.93440246582031,0.25524637103081,0.63403135538101,10.08769130706787,-4.17348098754883,-1.20084488391876,4.22101116180420
531,2181198190,3.18753933906555,-1.41484427452087,-158.85273742675781,0.26679617166519,0.63223373889923,10.06906223297119,-4.49432563781738,-1.33115637302399,4.40275382995605
532,2181214857,3.12814664840698,-1.44256246089935,-158.76802062988281,0.27626788616180,0.64534121751785,10.05111408233643,-4.85469627380371,-1.39494478702545,4.59469509124756
533,2181231524,3.06371617317200,-1.47146236896515,-158.67968750000000,0.27775305509567,0.63521450757980,10.03499889373779,-5.15001010894775,-1.45953989028931,4.80779218673706
534,2181248191,2.99510002136230,-1.49915146827698,-158.58775329589844,0.27284574508667,0.63358008861542,10.00150966644287,-5.39369678497314,-1.38209354877472,5.01651763916016
535,2181264858,2.92183065414429,-1.52879595756531,-158.49362182617188,0.29133999347687,0.61246174573898,9.98880100250244,-5.66668939590454,-1.49919486045837,5.15531253814697
536,2181281525,2.84534502029419,-1.55866456031799,-158.39599609375000,0.28616234660149,0.60195916891098,9.97030353546143,-5.85158014297485,-1.50922846794128,5.36112928390503
537,2181298192,2.76773500442505,-1.58946561813354,-158.29409790039062,0.26691100001335,0.58956348896027,9.95379447937012,-5.90954256057739,-1.56041574478149,5.61541271209717
538,2181314859,2.68971467018127,-1.62026405334473,-158.19027709960938,0.26584854722023,0.56090265512466,9.92971038818359,-5.92880964279175,-1.56357240676880,5.73286628723145
539,2181331526,2.61446976661682,-1.65021526813507,-158.08248901367188,0.30843505263329,0.53072893619537,9.93487167358398,-5.75174856185913,-1.51000332832336,5.96193265914917
540,2181348193,2.54075837135315,-1.67915797233582,-157.97256469726562,0.27830794453621,0.50886547565460,9.90266990661621,-5.65347242355347,-1.45176005363464,6.09012460708618
541,2181364860,2.47038650512695,-1.70657825469971,-157.86051940917969,0.26521399617195,0.47927340865135,9.91519355773926,-5.44740581512451,-1.36388278007507,6.20869827270508
542,2181381527,2.40448188781738,-1.73201096057892,-157.74499511718750,0.29058614373207,0.46494668722153,9.90080356597900,-5.16981649398804,-1.24396443367004,6.40967035293579
543,2181398194,2.34312081336975,-1.75448763370514,-157.62692260742188,0.30205568671227,0.45711588859558,9.89005661010742,-4.88982439041138,-1.06779384613037,6.55356836318970
544,2181414861,2.28784155845642,-1.77631139755249,-157.50694274902344,0.32974398136139,0.43054661154747,9.86748790740967,-4.51915693283081,-1.03132116794586,6.66863203048706
545,2181431528,2.24149370193481,-1.79659652709961,-157.38481140136719,0.35285994410515,0.39990234375000,9.87285137176514,-3.97747969627380,-0.94056892395020,6.79010725021362
546,2181448195,2.20259356498718,-1.81694090366364,-157.25930786132812,0.33461356163025,0.40808439254761,9.84456062316895,-3.52223968505859,-0.94127327203751,6.98980951309204
547,2181464862,2.17335057258606,-1.83439350128174,-157.13288879394531,0.31980523467064,0.40432879328728,9.84503746032715,-2.93782186508179,-0.77051335573196,7.04200792312622
548,2181481529,2.14972853660583,-1.84960389137268,-157.00619506835938,0.31175935268402,0.44201943278313,9.84726333618164,-2.59883761405945,-0.63888967037201,7.04923105239868
549,2181498196,2.12980961799622,-1.86133217811584,-156.87594604492188,0.27830788493156,0.46967217326164,9.85615444183350,-2.36927127838135,-0.42501083016396,7.25621986389160
550,2181514863,2.11276483535767,-1.87156510353088,-156.74485778808594,0.27251672744751,0.47063741087914,9.84464550018311,-2.19303011894226,-0.33631402254105,7.30314207077026
551,2181531530,2.09712362289429,-1.88045382499695,-156.61235046386719,0.26533725857735,0.47561147809029,9.86126804351807,-2.10598540306091,-0.25448140501976,7.38257980346680
552,2181548197,2.08166432380676,-1.88749742507935,-156.47863769531250,0.27128398418427,0.50003105401993,9.86149787902832,-2.09134769439697,-0.14360402524471,7.45409107208252
553,2181564864,2.06326436996460,-1.89242029190063,-156.34463500976562,0.26051673293114,0.51657438278198,9.87686157226562,-2.26747345924377,-0.01857561245561,7.46336221694946
554,2181581531,2.04292297363281,-1.89641189575195,-156.20846557617188,0.27980586886406,0.51462090015411,9.88303470611572,-2.37963128089905,0.03971249610186,7.59433269500732
555,2181598198,2.01815676689148,-1.89901185035706,-156.07160949707031,0.26076701283455,0.51767629384995,9.88881587982178,-2.64417219161987,0.12080231308937,7.62827062606812
556,2181614865,1.98824226856232,-1.90021049976349,-155.93379211425781,0.25668254494667,0.51486563682556,9.90021133422852,-2.95183229446411,0.20277579128742,7.68446493148804
557,2181631532,1.95342469215393,-1.90149378776550,-155.79492187500000,0.26702868938446,0.50115001201630,9.91381740570068,-3.24414992332458,0.19492547214031,7.74984073638916
558,2181648199,1.91303396224976,-1.90183031558990,-155.65483093261719,0.25708454847336,0.49501210451126,9.91506671905518,-3.57625746726990,0.24935249984264,7.82194137573242
559,2181664866,1.86754107475281,-1.90187191963196,-155.51448059082031,0.27689832448959,0.48971092700958,9.92616939544678,-3.88322520256042,0.26051962375641,7.83408117294312
560,2181681533,1.81864070892334,-1.89972233772278,-155.37411499023438,0.24191461503506,0.47654917836189,9.92726421356201,-4.08802509307861,0.38521510362625,7.83281421661377
561,2181698200,1.76650238037109,-1.89792776107788,-155.23376464843750,0.31247326731682,0.44931840896606,9.94598770141602,-4.28305292129517,0.35609343647957,7.83281421661377
562,2181714867,1.71346795558929,-1.89638864994049,-155.09182739257812,0.37393566966057,0.41103336215019,9.95425605773926,-4.33528995513916,0.33612835407257,7.93097305297852
563,2181731534,1.66186189651489,-1.89450371265411,-154.95150756835938,0.33636751770973,0.37992087006569,9.97799491882324,-4.25265026092529,0.34634783864021,7.83356952667236
564,2181748201,1.61241352558136,-1.89218926429749,-154.80992126464844,0.30967032909393,0.33439043164253,9.97459888458252,-4.12233304977417,0.36685076355934,7.90582275390625
565,2181764868,1.56792247295380,-1.89044523239136,-154.66920471191406,0.32727888226509,0.33560925722122,9.99961853027344,-3.82676172256470,0.32448732852936,7.85407066345215
566,2181781535,1.53038752079010,-1.88765859603882,-154.52976989746094,0.32474809885025,0.29509818553925,9.99515628814697,-3.41311717033386,0.37859418988228,7.77860355377197
567,2181798202,1.50003075599670,-1.88502824306488,-154.39067077636719,0.30685439705849,0.25696998834610,9.99282073974609,-2.98347735404968,0.36379006505013,7.75884485244751
568,2181814869,1.47594511508942,-1.88220930099487,-154.25407409667969,0.27810198068619,0.25540348887444,10.00185871124268,-2.61196422576904,0.36726054549217,7.60944461822510
569,2181831536,1.46248519420624,-1.87982642650604,-154.12071228027344,0.32342204451561,0.24071432650089,10.02257442474365,-1.98246800899506,0.33356702327728,7.41431474685669
570,2181848203,1.45681238174438,-1.87746870517731,-153.98937988281250,0.26596933603287,0.22596111893654,10.03520965576172,-1.51927542686462,0.32807314395905,7.29855823516846
571,2181864870,1.45909416675568,-1.87373673915863,-153.86120605468750,0.19575475156307,0.23197841644287,10.06078720092773,-1.04910266399384,0.40455263853073,7.10210752487183
572,2181881537,1.46964871883392,-1.87133312225342,-153.73316955566406,0.18072898685932,0.21789404749870,10.08350372314453,-0.55395793914795,0.32584485411644,7.09483432769775
573,2181898204,1.48622798919678,-1.86570692062378,-153.60896301269531,0.21181447803974,0.19240412116051,10.08720493316650,-0.19991354644299,0.51463598012924,6.85887670516968
574,2181914871,1.50918900966644,-1.86145174503326,-153.48776245117188,0.28447502851486,0.18505415320396,10.07983589172363,0.17653554677963,0.42979392409325,6.68390321731567
575,2181931538,1.53669774532318,-1.85776436328888,-153.36994934082031,0.30487969517708,0.19976599514484,10.09176921844482,0.44204965233803,0.39376971125603,6.48193502426147
576,2181948205,1.56598389148712,-1.85286343097687,-153.25518798828125,0.29424235224724,0.21293936669827,10.10468769073486,0.54095309972763,0.46478092670441,6.29520559310913
577,2181964872,1.59722220897675,-1.84804403781891,-153.14421081542969,0.30431249737740,0.19456195831299,10.11201858520508,0.65161263942719,0.45769894123077,6.07110595703125
578,2181981539,1.62864160537720,-1.84083569049835,-153.03761291503906,0.32764285802841,0.19735944271088,10.12860202789307,0.65295743942261,0.59704494476318,5.80487585067749
579,2181998206,1.66028118133545,-1.83410298824310,-152.93450927734375,0.29113629460335,0.19918689131737,10.11054706573486,0.65788787603378,0.56566935777664,5.58998537063599
580,2182014873,1.69281971454620,-1.82821345329285,-152.83657836914062,0.27128779888153,0.18988367915154,10.14713478088379,0.70191609859467,0.51002573966980,5.28282499313354
581,2182031540,1.72656321525574,-1.82333695888519,-152.74285888671875,0.27353337407112,0.22483640909195,10.14705467224121,0.76546120643616,0.44493108987808,5.03529071807861
582,2182048207,1.76019787788391,-1.81767749786377,-152.65246582031250,0.24830174446106,0.20644398033619,10.16296195983887,0.75212341547012,0.48886322975159,4.82963991165161
583,2182064874,1.79409074783325,-1.81230258941650,-152.56491088867188,0.21632646024227,0.22622664272785,10.15089321136475,0.76167058944702,0.46990346908569,4.65868186950684
584,2182081541,1.82843053340912,-1.80813789367676,-152.48156738281250,0.22609362006187,0.20300433039665,10.14546966552734,0.78031659126282,0.39229691028595,4.41254329681396
585,2182098208,1.86232089996338,-1.80481624603271,-152.40075683593750,0.21139448881149,0.20038469135761,10.14123725891113,0.74860167503357,0.33968207240105,4.25996255874634
586,2182114875,1.89912855625153,-1.80115461349487,-152.32255554199219,0.19741228222847,0.21206896007061,10.14537906646729,0.91787582635880,0.35800787806511,4.10692596435547
587,2182131542,1.93753063678741,-1.79883706569672,-152.24745178222656,0.22902257740498,0.18705816566944,10.13761425018311,1.00772535800934,0.27358850836754,3.91991567611694
588,2182148209,1.97767472267151,-1.79667699337006,-152.17376708984375,0.25837460160255,0.19012854993343,10.12537765502930,1.10948467254639,0.26459842920303,3.83698129653931
589,2182164876,2.02083015441895,-1.79384744167328,-152.10241699218750,0.26584365963936,0.20401208102703,10.14888858795166,1.28634667396545,0.30306228995323,3.69502949714661
590,2182181543,2.06619977951050,-1.79031050205231,-152.03408813476562,0.26432180404663,0.19440190494061,10.13502693176270,1.41227149963379,0.34196797013283,3.50850462913513
591,2182198210,2.11284661293030,-1.78715097904205,-151.96791076660156,0.25289237499237,0.21743430197239,10.13391017913818,1.48563265800476,0.31792405247688,3.38395643234253
592,2182214877,2.16039252281189,-1.78383255004883,-151.90245056152344,0.24689415097237,0.24646815657616,10.13628387451172,1.53834998607635,0.32939210534096,3.33960151672363
593,2182231544,2.20763707160950,-1.77895987033844,-151.83978271484375,0.27457597851753,0.26737469434738,10.13641929626465,1.51444065570831,0.41890853643417,3.16861152648926
594,2182248211,2.25064253807068,-1.77362751960754,-151.77865600585938,0.27384436130524,0.29250741004944,10.12903976440430,1.25684070587158,0.44610917568207,3.07275557518005
595,2182264878,2.28907442092896,-1.76784801483154,-151.71992492675781,0.26382464170456,0.30982375144958,10.13463115692139,0.97763669490814,0.47013393044472,2.93663692474365
596,2182281545,2.32164692878723,-1.76043128967285,-151.66102600097656,0.26409798860550,0.34311097860336,10.11842536926270,0.62644833326340,0.57013881206512,2.93734169006348
597,2182298212,2.34733724594116,-1.75262415409088,-151.60314941406250,0.24502159655094,0.35527330636978,10.11262321472168,0.21076691150665,0.59340786933899,2.87502574920654
598,2182314879,2.36564612388611,-1.74431824684143,-151.54678344726562,0.26405608654022,0.36622977256775,10.11406326293945,-0.23456750810146,0.62077504396439,2.78150081634521
599,2182331546,2.37727975845337,-1.73584496974945,-151.48951721191406,0.24759116768837,0.34893119335175,10.10194587707520,-0.63565593957901,0.63338279724121,2.83594679832458
600,2182348213,2.38162422180176,-1.72559893131256,-151.43286132812500,0.23087127506733,0.36468738317490,10.08708858489990,-1.07349872589111,0.73916977643967,2.79465293884277
601,2182364880,2.37798857688904,-1.71321260929108,-151.37596130371094,0.25892999768257,0.35825881361961,10.07297992706299,-1.55331408977509,0.86815530061722,2.80393767356873
602,2182381547,2.36859464645386,-1.70137500762939,-151.31793212890625,0.28114503622055,0.37492653727531,10.06961727142334,-1.89671647548676,0.83774012327194,2.87569141387939
603,2182398214,2.35160851478577,-1.68857455253601,-151.25946044921875,0.27145865559578,0.36129677295685,10.11050987243652,-2.35295581817627,0.89529192447662,2.89670705795288
604,2182414881,2.32647299766541,-1.67441272735596,-151.20016479492188,0.26978620886803,0.35288912057877,10.07942008972168,-2.84072351455688,0.97835385799408,2.94590854644775
605,2182431548,2.29323649406433,-1.66138851642609,-151.13963317871094,0.28486123681068,0.35477703809738,10.06556034088135,-3.32617425918579,0.91067242622375,3.02109503746033
606,2182448215,2.25138020515442,-1.64555919170380,-151.07633972167969,0.29939770698547,0.35176223516464,10.05314064025879,-3.83912611007690,1.08380782604218,3.18279409408569
607,2182464882,2.20396780967712,-1.62882626056671,-151.01405334472656,0.30597999691963,0.33601924777031,10.02816677093506,-4.17540216445923,1.13228631019592,3.11636185646057
608,2182481549,2.15118741989136,-1.61271536350250,-150.95135498046875,0.31831097602844,0.32403305172920,10.05745220184326,-4.49775075912476,1.09338068962097,3.14550876617432
609,2182498216,2.09437417984009,-1.59686207771301,-150.88633728027344,0.27581018209457,0.32386735081673,10.03588581085205,-4.73786973953247,1.07898628711700,3.28924703598022
610,2182514883,2.03390002250671,-1.58092427253723,-150.82011413574219,0.26891458034515,0.31925824284554,10.05263423919678,-4.95628166198730,1.08366048336029,3.35928463935852
611,2182531550,1.97110974788666,-1.56360101699829,-150.75141906738281,0.28239849209785,0.31647187471390,10.01240062713623,-5.09241342544556,1.16731178760529,3.50384306907654
612,2182548217,1.90606355667114,-1.54855465888977,-150.68148803710938,0.27949535846710,0.31987801194191,10.02863693237305,-5.22703409194946,1.02835011482239,3.58242321014404
613,2182564884,1.84015119075775,-1.53229010105133,-150.60894775390625,0.28010371327400,0.29934227466583,10.04053974151611,-5.27592849731445,1.10269105434418,3.74087619781494
614,2182581551,1.77413094043732,-1.51696908473969,-150.53559875488281,0.27078604698181,0.30562883615494,10.04063701629639,-5.28227996826172,1.04243695735931,3.79472637176514
615,2182598218,1.70742869377136,-1.50225234031677,-150.46076965332031,0.25188159942627,0.31718260049820,10.01381015777588,-5.32203149795532,1.00395381450653,3.88342308998108
616,2182614885,1.64101576805115,-1.48809909820557,-150.38491821289062,0.26568001508713,0.30283826589584,9.99886512756348,-5.30480670928955,0.96673858165741,3.94544434547424
617,2182631552,1.57484519481659,-1.47458577156067,-150.30621337890625,0.26044154167175,0.31144016981125,10.01055622100830,-5.28726911544800,0.92835164070129,4.12146186828613
618,2182648219,1.50841319561005,-1.46234786510468,-150.22721862792969,0.27947854995728,0.29559803009033,10.02411174774170,-5.30351972579956,0.84659582376480,4.14123439788818
619,2182664886,1.44169509410858,-1.45000386238098,-150.14770507812500,0.27720999717712,0.29035997390747,9.99105358123779,-5.32194137573242,0.84868967533112,4.17137432098389
620,2182681553,1.37803161144257,-1.43839144706726,-150.06549072265625,0.26312738656998,0.30181300640106,10.00693225860596,-5.13583326339722,0.80332309007645,4.33724832534790
621,2182698220,1.31516098976135,-1.42763137817383,-149.98211669921875,0.27885511517525,0.30879393219948,10.01013946533203,-5.08718252182007,0.74839681386948,4.40933561325073
622,2182714887,1.25498366355896,-1.41852581501007,-149.89755249023438,0.27729788422585,0.29971551895142,9.98283195495605,-4.92465066909790,0.64610600471497,4.48209476470947
623,2182731554,1.19568169116974,-1.41000390052795,-149.81092834472656,0.25844925642014,0.29514238238335,9.98945236206055,-4.87138843536377,0.60850650072098,4.60981273651123
624,2182748221,1.13811767101288,-1.40335142612457,-149.72201538085938,0.27425584197044,0.30672854185104,9.98127365112305,-4.76355981826782,0.49390256404877,4.74941539764404
625,2182764888,1.08107841014862,-1.39781689643860,-149.63128662109375,0.28131628036499,0.30345079302788,9.97711086273193,-4.73123645782471,0.42349320650101,4.85318422317505
626,2182781555,1.02275681495667,-1.39232432842255,-149.53782653808594,0.24518825113773,0.32604533433914,9.97603702545166,-4.80473232269287,0.41904947161674,5.02495718002319
627,2182798222,0.96387523412704,-1.38873696327209,-149.44209289550781,0.22161693871021,0.32207795977592,9.96607398986816,-4.83585166931152,0.30128222703934,5.16372632980347
628,2182814889,0.90569448471069,-1.38448512554169,-149.34335327148438,0.25612127780914,0.30536901950836,9.93201351165771,-4.79074668884277,0.33824130892754,5.34211778640747
629,2182831556,0.84886783361435,-1.38138091564178,-149.24275207519531,0.27285811305046,0.30538192391396,9.96193981170654,-4.70750617980957,0.26552686095238,5.45414781570435
630,2182848223,0.79383611679077,-1.38086473941803,-149.13934326171875,0.25138497352600,0.29769733548164,9.94837570190430,-4.59655141830444,0.10671531409025,5.62325572967529
631,2182864890,0.74034321308136,-1.37965059280396,-149.03202819824219,0.25569853186607,0.30163446068764,9.92772674560547,-4.49860858917236,0.14615887403488,5.85724067687988
632,2182881557,0.68872284889221,-1.37730336189270,-148.92454528808594,0.26291686296463,0.30273097753525,9.93069934844971,-4.38702678680420,0.20812879502773,5.86680698394775
633,2182898224,0.63843339681625,-1.37646770477295,-148.81361389160156,0.27590128779411,0.28572613000870,9.94164657592773,-4.30390167236328,0.11457844078541,6.07617902755737
634,2182914891,0.58908110857010,-1.37581992149353,-148.70166015625000,0.27812805771828,0.26513683795929,9.95182800292969,-4.24665737152100,0.09784053266048,6.13706016540527
635,2182931558,0.54170989990234,-1.37589406967163,-148.58804321289062,0.31617045402527,0.23476092517376,9.92978668212891,-4.12525272369385,0.05048264563084,6.23651456832886
636,2182948225,0.49975940585136,-1.37622880935669,-148.47128295898438,0.32452762126923,0.21226000785828,9.93103885650635,-3.79629611968994,0.03158046677709,6.42384529113770
637,2182964892,0.46133595705032,-1.37685871124268,-148.35478210449219,0.29639455676079,0.21719813346863,9.94319725036621,-3.58601498603821,0.00905408989638,6.41254901885986
638,2182981559,0.42790225148201,-1.37815690040588,-148.23712158203125,0.31468585133553,0.19781348109245,9.93358802795410,-3.28492498397827,-0.03509579971433,6.48064088821411
639,2182998226,0.40002989768982,-1.37929201126099,-148.11708068847656,0.29634219408035,0.19901582598686,9.91878509521484,-2.94779133796692,-0.02722630091012,6.62468051910400
640,2183014893,0.37793803215027,-1.38077569007874,-147.99449157714844,0.30144193768501,0.16882658004761,9.90103816986084,-2.59760165214539,-0.05072595551610,6.77507829666138
641,2183031560,0.36093914508820,-1.38139736652374,-147.87077331542969,0.30826890468597,0.16895747184753,9.89523315429688,-2.29060792922974,-0.00038419049815,6.84088993072510
642,2183048227,0.35157391428947,-1.38314723968506,-147.74574279785156,0.29282325506210,0.17518739402294,9.90308952331543,-1.83166682720184,-0.06943602859974,6.92256879806519
643,2183064894,0.34636768698692,-1.38554024696350,-147.61940002441406,0.25861695408821,0.17506983876228,9.93075656890869,-1.57934319972992,-0.10788069665432,7.00026464462280
644,2183081561,0.34442293643951,-1.38761377334595,-147.49031066894531,0.28511139750481,0.18568497896194,9.92099571228027,-1.38058876991272,-0.08804365247488,7.16984701156616
645,2183098228,0.34593993425369,-1.39054298400879,-147.36196899414062,0.28151291608810,0.19810852408409,9.93716430664062,-1.17409908771515,-0.14002464711666,7.12403869628906
646,2183114895,0.34993624687195,-1.39449536800385,-147.23260498046875,0.29590916633606,0.17273011803627,9.91284561157227,-1.02312505245209,-0.19962538778782,7.18591833114624
647,2183131562,0.35675209760666,-1.39922440052032,-147.10345458984375,0.29841890931129,0.18574556708336,9.93459796905518,-0.85462540388107,-0.24597801268101,7.16884136199951
648,2183148229,0.36482560634613,-1.40290629863739,-146.97512817382812,0.28302711248398,0.20141389966011,9.94348430633545,-0.78000277280807,-0.18244567513466,7.12067699432373
649,2183164896,0.37565407156944,-1.40846991539001,-146.84721374511719,0.27668333053589,0.18034569919109,9.96787166595459,-0.61475604772568,-0.29393136501312,7.10347175598145
650,2183181563,0.38744401931763,-1.41567683219910,-146.72140502929688,0.26214995980263,0.18098945915699,9.94862556457520,-0.56073898077011,-0.39123404026031,6.96986341476440
651,2183198230,0.40103220939636,-1.42205584049225,-146.59509277343750,0.27199208736420,0.16306929290295,9.94574832916260,-0.45107176899910,-0.33993825316429,7.00138711929321
652,2183214897,0.41777810454369,-1.42933177947998,-146.47116088867188,0.27586451172829,0.14148983359337,9.99232101440430,-0.26460486650467,-0.39277082681656,6.85934495925903
653,2183231564,0.43923956155777,-1.43897235393524,-146.34851074218750,0.27251389622688,0.12013567239046,10.01351261138916,0.01796090602875,-0.53238558769226,6.78506708145142
654,2183248231,0.46451920270920,-1.44960474967957,-146.22698974609375,0.24570284783840,0.13577212393284,9.98989486694336,0.24537609517574,-0.58946347236633,6.71692466735840
655,2183264898,0.49335870146751,-1.45954155921936,-146.10752868652344,0.25328531861305,0.15717309713364,10.01529312133789,0.45743644237518,-0.54517912864685,6.59571170806885
656,2183281565,0.52698791027069,-1.47064483165741,-145.98904418945312,0.25816649198532,0.13444437086582,10.02007102966309,0.74452912807465,-0.61156725883484,6.53558588027954
657,2183298232,0.56316041946411,-1.48375821113586,-145.87203979492188,0.25641107559204,0.11457698047161,10.00278568267822,0.89556735754013,-0.72852772474289,6.44959259033203
658,2183314899,0.60301154851913,-1.49665594100952,-145.75852966308594,0.29001602530479,0.10660540312529,10.02455329895020,1.11209082603455,-0.71333295106888,6.23988199234009
659,2183331566,0.64479869604111,-1.51207876205444,-145.64736938476562,0.31113725900650,0.11567116528749,10.04268646240234,1.22636187076569,-0.86143845319748,6.10134315490723
660,2183348233,0.69044822454453,-1.52753531932831,-145.53868103027344,0.26840677857399,0.14479094743729,10.03915500640869,1.45571708679199,-0.85930609703064,5.95735359191895
661,2183364900,0.73785912990570,-1.54178786277771,-145.43144226074219,0.30357211828232,0.11585584282875,10.07814788818359,1.56170213222504,-0.78335165977478,5.86750459671021
662,2183381567,0.78806763887405,-1.55760729312897,-145.32925415039062,0.32671833038330,0.10669371485710,10.07028007507324,1.72180128097534,-0.87562781572342,5.56753587722778
663,2183398234,0.84160298109055,-1.57306158542633,-145.22895812988281,0.32074442505836,0.08848322927952,10.09554195404053,1.91977429389954,-0.84931075572968,5.45343065261841
664,2183414901,0.89833229780197,-1.58929753303528,-145.13313293457031,0.32631152868271,0.10422720760107,10.09642219543457,2.10626077651978,-0.89470928907394,5.18719959259033
665,2183431568,0.95992779731750,-1.60441458225250,-145.03866577148438,0.32774654030800,0.12317081540823,10.06602382659912,2.39751553535461,-0.82272481918335,5.10030841827393
666,2183448235,1.02377271652222,-1.61876022815704,-144.94635009765625,0.28580257296562,0.13886640965939,10.07044124603271,2.53029131889343,-0.77198600769043,4.97553586959839
667,2183464902,1.09111392498016,-1.63191962242126,-144.85655212402344,0.28833767771721,0.13203151524067,10.07144737243652,2.73685789108276,-0.69733774662018,4.82258939743042
668,2183481569,1.16122078895569,-1.64632868766785,-144.76879882812500,0.25210586190224,0.11969666928053,10.04740238189697,2.90093302726746,-0.76848989725113,4.70086574554443
669,2183498236,1.23276245594025,-1.66030979156494,-144.68395996093750,0.26326733827591,0.15898199379444,10.10324573516846,2.98358511924744,-0.73938095569611,4.53002834320068
670,2183514903,1.30483460426331,-1.67316961288452,-144.60412597656250,0.28161922097206,0.15530534088612,10.07603168487549,3.00682878494263,-0.67250633239746,4.22924613952637
671,2183531570,1.37783312797546,-1.68492031097412,-144.52833557128906,0.23197878897190,0.17523486912251,10.10301589965820,3.05764460563660,-0.60534977912903,3.98333907127380
672,2183548237,1.45103442668915,-1.69606149196625,-144.45539855957031,0.24588124454021,0.16998575627804,10.08658981323242,3.06441855430603,-0.56781440973282,3.81157994270325
673,2183564904,1.52513444423676,-1.70624423027039,-144.38690185546875,0.25111219286919,0.16611079871655,10.08327484130859,3.11211633682251,-0.51146012544632,3.54680252075195
674,2183581571,1.59759283065796,-1.71655941009521,-144.32072448730469,0.22973309457302,0.14879639446735,10.08647060394287,3.00999855995178,-0.51777356863022,3.41428232192993
675,2183598238,1.66965818405151,-1.72550106048584,-144.25880432128906,0.24498967826366,0.16495381295681,10.10277748107910,2.97962808609009,-0.43766340613365,3.15004181861877
676,2183614905,1.74099397659302,-1.73303520679474,-144.20158386230469,0.25286510586739,0.16926749050617,10.08059310913086,2.92801809310913,-0.35734197497368,2.87036395072937
677,2183631572,1.81180119514465,-1.74015319347382,-144.14886474609375,0.25621691346169,0.17045171558857,10.09127712249756,2.88940739631653,-0.33641642332077,2.59519433975220
678,2183648239,1.88137924671173,-1.74594902992249,-144.09829711914062,0.25788354873657,0.19220694899559,10.08047580718994,2.81137180328369,-0.25736922025681,2.46520304679871
679,2183664906,1.95029926300049,-1.75014138221741,-144.05160522460938,0.28728216886520,0.17429316043854,10.08657741546631,2.76572942733765,-0.16534277796745,2.23064184188843
680,2183681573,2.01700901985168,-1.75436544418335,-144.00799560546875,0.27612677216530,0.18296693265438,10.09937667846680,2.62793350219727,-0.17035007476807,2.04680681228638
681,2183698240,2.08275675773621,-1.75609111785889,-143.96850585937500,0.28825929760933,0.22016158699989,10.09148120880127,2.56319713592529,-0.02584321238101,1.79585373401642
682,2183714907,2.14633393287659,-1.75720763206482,-143.93148803710938,0.26254644989967,0.23084868490696,10.09982872009277,2.42837858200073,0.00768380938098,1.64379739761353
683,2183731574,2.20849752426147,-1.75735628604889,-143.89630126953125,0.23711222410202,0.25387725234032,10.12136745452881,2.34065508842468,0.06348107755184,1.53339397907257
684,2183748241,2.26726746559143,-1.75482702255249,-143.86427307128906,0.25870826840401,0.27069255709648,10.11310672760010,2.13110470771790,0.21898856759071,1.33457517623901
685,2183764908,2.32359409332275,-1.75360643863678,-143.83430480957031,0.24727639555931,0.28717222809792,10.09878253936768,1.98132181167603,0.13791158795357,1.21881878376007
686,2183781575,2.37641644477844,-1.75189983844757,-143.80569458007812,0.25001105666161,0.32360449433327,10.12709808349609,1.76848638057709,0.16469605267048,1.13427770137787
