sep=,
DeviceTag:,Xsens DOT 1
FirmwareVersion:,2.2.1
AppVersion:,2023.6.0
StartTime: ,2023-12-12_15:45:17_000 CET
© Movella Technologies B. V. 2005-2023

PacketCounter,SampleTimeFine,Euler_X,Euler_Y,Euler_Z,Acc_X,Acc_Y,Acc_Z,Gyr_X,Gyr_Y,Gyr_Z
0,2172348013,89.53233337402344,22.03617858886719,18.40717124938965,0.00000000000000,0.00000000000000,0.00000000000000,0.00000000000000,0.00000000000000,0.00000000000000
1,2172364680,89.61968231201172,21.47946166992188,18.52459526062012,-2.56090545654297,9.29200839996338,0.53958350419998,2.75013566017151,6.31323432922363,32.24941635131836
2,2172381347,89.79823303222656,20.85019111633301,18.63027381896973,-2.13423109054565,9.16319656372070,0.88949263095856,8.54605388641357,5.73747873306274,36.57724761962891
3,2172398014,90.19509887695312,20.14742279052734,18.73633003234863,-2.42096090316772,9.18617725372314,1.02029728889465,21.71219062805176,5.97154331207275,40.94738388061523
4,2172414681,90.81897735595703,19.37349128723145,18.84878921508789,-2.81296658515930,8.92613697052002,0.66083681583405,35.28600311279297,6.77389526367188,45.15288543701172
5,2172431348,91.58270263671875,18.53344726562500,18.96928405761719,-2.83730888366699,9.12578010559082,0.30841842293739,43.61574935913086,7.89949989318848,49.02013778686523
6,2172448015,92.43838500976562,17.62847518920898,19.10132789611816,-2.53462958335876,8.85910320281982,0.11572562903166,49.02530288696289,9.43736553192139,52.77109909057617
7,2172464682,93.42115783691406,16.65237617492676,19.24945068359375,-2.09124493598938,8.70347785949707,0.39535632729530,56.49166107177734,11.47297382354736,56.82418060302734
8,2172481349,94.53652191162109,15.60021018981934,19.41736412048340,-1.75941836833954,9.22961235046387,0.29694086313248,64.27356719970703,14.02916526794434,61.07168579101562
9,2172498016,95.65291595458984,14.47675991058350,19.59320449829102,-1.54286813735962,9.86367416381836,0.37741234898567,64.40418243408203,16.12333869934082,64.99550628662109
10,2172514683,96.58115386962891,13.29165744781494,19.75865364074707,-1.55279505252838,10.02079963684082,0.06166075915098,53.47927474975586,17.14002609252930,68.42655181884766
11,2172531350,97.20697021484375,12.04825878143311,19.89886474609375,-1.54579150676727,9.86161994934082,0.06954228132963,35.87956619262695,17.07782554626465,71.82597351074219
12,2172548017,97.60583496093750,10.74794769287109,20.00925064086914,-1.29711818695068,9.28126716613770,-0.24952284991741,22.80886077880859,16.46301460266113,75.27453613281250
13,2172564684,98.05068969726562,9.39644145965576,20.10333442687988,-0.80210524797440,9.15903377532959,-0.20558211207390,25.89640235900879,16.51243209838867,78.31857299804688
14,2172581351,98.77685546875000,8.00086688995361,20.19914627075195,-0.61660599708557,9.32833099365234,0.11863137781620,42.89959716796875,17.82646942138672,80.73908233642578
15,2172598018,99.91049194335938,6.56729793548584,20.31516075134277,-0.72894513607025,9.60871219635010,0.27282035350800,67.34270477294922,20.72030448913574,82.48741912841797
16,2172614685,101.40712738037109,5.10516500473022,20.46272468566895,-0.69610881805420,10.05572414398193,0.37504437565804,89.11768341064453,24.81752586364746,83.32038116455078
17,2172631352,103.22433471679688,3.61795759201050,20.65937995910645,-0.99464482069016,10.50316047668457,0.19257420301437,108.36724853515625,30.44877624511719,83.40790557861328
18,2172648019,105.25231170654297,2.11756396293640,20.90857124328613,-0.42281505465508,11.17093849182129,-0.05170106887817,121.17842102050781,36.52514266967773,82.33117675781250
19,2172664686,107.18782043457031,0.62386387586594,21.19109725952148,0.14732621610165,12.23118305206299,-1.10963249206543,115.99688720703125,41.20232009887695,80.07265472412109
20,2172681353,108.87477874755859,-0.84235841035843,21.48019981384277,0.86034464836121,12.51150894165039,-2.48717117309570,101.53704071044922,43.60696411132812,77.03814697265625
21,2172698020,110.21744537353516,-2.26314234733582,21.74045181274414,1.68099987506866,12.34698677062988,-3.44521903991699,81.28166198730469,43.09681701660156,73.86736297607422
22,2172714687,111.29254913330078,-3.63278079032898,21.93899536132812,2.28870081901550,11.28243064880371,-4.69446849822998,65.42220306396484,40.09642791748047,71.38323974609375
23,2172731354,111.54777526855469,-4.92724847793579,22.02548217773438,2.58809566497803,13.57703208923340,-3.40335440635681,16.00021553039551,33.01547241210938,69.16098785400391
24,2172748021,109.39733123779297,-6.06233882904053,21.98303222656250,2.49092197418213,15.67025756835938,-2.76919007301331,-128.95216369628906,21.27245330810547,63.43276596069336
25,2172764688,105.81157684326172,-7.03082513809204,21.89687347412109,2.94189167022705,10.38033485412598,-3.71238684654236,-215.39555358886719,12.50465488433838,55.67980575561523
26,2172781355,102.31397247314453,-7.82858896255493,21.87563514709473,2.53514575958252,8.59877490997314,-3.32378721237183,-209.69053649902344,10.23322296142578,45.45684051513672
27,2172798022,100.06932067871094,-8.43349552154541,21.98756408691406,1.89572715759277,8.09850788116455,-3.44177937507629,-133.41569519042969,13.39901828765869,33.01421737670898
28,2172814689,99.21905517578125,-8.84619140625000,22.19358634948730,1.06030702590942,6.83470010757446,-3.13641548156738,-48.86495971679688,16.02787208557129,21.05851745605469
29,2172831356,99.37496948242188,-9.10900974273682,22.42033958435059,0.54026442766190,7.59514808654785,-3.10330343246460,11.75289535522461,15.64998912811279,12.08656501770020
30,2172848023,99.93621826171875,-9.25162696838379,22.62701416015625,0.78215408325195,9.19028186798096,-2.67663717269897,35.91188049316406,13.34219932556152,5.08701562881470
31,2172864690,100.39205169677734,-9.29539775848389,22.79868316650391,1.13674259185791,9.89982891082764,-2.16885614395142,29.25690650939941,10.31037521362305,-0.49479421973228
32,2172881357,100.62671661376953,-9.25887393951416,22.93821716308594,1.13461256027222,10.25796127319336,-2.25605726242065,15.67275047302246,7.56852340698242,-4.94104766845703
33,2172898024,100.70078277587891,-9.16755104064941,23.04117012023926,0.73709559440613,10.22487068176270,-2.14692592620850,5.67180681228638,4.82286071777344,-7.78555345535278
34,2172914691,100.72690582275391,-9.04211997985840,23.10543441772461,0.39303344488144,10.12275028228760,-1.68113708496094,2.41324210166931,2.18988656997681,-9.36615085601807
35,2172931358,100.77659606933594,-8.90394878387451,23.13334465026855,0.35055169463158,10.08284091949463,-1.63570892810822,3.47766780853271,-0.07170917838812,-9.70623588562012
36,2172948025,100.92253875732422,-8.75905132293701,23.13960456848145,0.65862745046616,10.01451492309570,-1.82704353332520,9.04867839813232,-1.41828501224518,-9.84937667846680
37,2172964692,101.17493438720703,-8.61029434204102,23.13298225402832,0.85623115301132,10.09618854522705,-1.91034936904907,15.31397724151611,-2.24100494384766,-9.91857337951660
38,2172981359,101.47475433349609,-8.46071243286133,23.11522293090820,0.94794678688049,10.11714363098145,-1.85182476043701,18.06239700317383,-2.93813323974609,-9.82051944732666
39,2172998026,101.77458953857422,-8.32152652740479,23.08188438415527,1.02423143386841,9.87249374389648,-1.59567749500275,17.92810630798340,-3.76176118850708,-9.00277996063232
40,2173014693,102.04225921630859,-8.20051193237305,23.02569198608398,1.13950109481812,9.50837039947510,-1.66715800762177,15.80670356750488,-4.90242433547974,-7.63348340988159
41,2173031360,102.22758483886719,-8.10233306884766,22.95133209228516,1.36678493022919,9.42778491973877,-1.74715626239777,10.71774387359619,-5.69558238983154,-6.04462051391602
42,2173048027,102.25491333007812,-8.02098751068115,22.85865020751953,1.49210631847382,9.33593845367432,-1.98059153556824,1.09021770954132,-6.55504083633423,-4.81613016128540
43,2173064694,102.11875152587891,-7.95457839965820,22.74420738220215,1.58903157711029,9.07430744171143,-1.91436493396759,-8.89587783813477,-7.62612724304199,-3.67339444160461
44,2173081361,101.88322448730469,-7.91013765335083,22.60971450805664,1.87527048587799,8.91951656341553,-2.07267141342163,-15.01836013793945,-8.51000118255615,-2.16332125663757
45,2173098028,101.63105010986328,-7.88905143737793,22.45606231689453,2.27577543258667,8.99031448364258,-1.96816754341125,-16.17646789550781,-9.33538532257080,-0.59965163469315
46,2173114695,101.40166473388672,-7.88822984695435,22.29158020019531,2.49811196327209,8.98566627502441,-1.90692210197449,-14.89873600006104,-9.72486400604248,0.67326891422272
47,2173131362,101.18318176269531,-7.90112352371216,22.12013053894043,2.44637084007263,9.19828891754150,-1.81514549255371,-14.30653285980225,-9.97990322113037,1.51531302928925
48,2173148029,100.96357727050781,-7.92783737182617,21.93924522399902,2.41566085815430,9.30662631988525,-1.45652961730957,-14.45808124542236,-10.38003635406494,2.38994884490967
49,2173164696,100.75984954833984,-7.96984815597534,21.74634170532227,2.43507933616638,9.42689037322998,-1.15447604656219,-13.61163139343262,-10.92264175415039,3.37897133827209
50,2173181363,100.66777038574219,-8.02639484405518,21.54497528076172,2.50717949867249,9.53643608093262,-0.98318886756897,-6.99076652526855,-11.26764202117920,4.29383134841919
51,2173198030,100.66359710693359,-8.09712791442871,21.33890724182129,2.60954833030701,9.44604396820068,-0.76039546728134,-1.76655364036560,-11.38924980163574,5.16366386413574
52,2173214697,100.71916961669922,-8.18042564392090,21.13349342346191,2.59055805206299,9.51516532897949,-0.88496655225754,1.81190705299377,-11.20874404907227,5.89330577850342
53,2173231364,100.78992462158203,-8.28123664855957,20.92886352539062,2.45342111587524,9.40342998504639,-0.59842300415039,2.71316814422607,-10.96103286743164,6.91968536376953
54,2173248031,100.86514282226562,-8.40519905090332,20.72735404968262,2.29508137702942,9.49791717529297,-0.55374419689178,2.98957991600037,-10.50775051116943,8.25559139251709
55,2173264698,100.93961334228516,-8.54712867736816,20.52739906311035,2.14019298553467,9.49981594085693,-0.66351884603500,2.93543529510498,-10.20050048828125,9.30352497100830
56,2173281365,101.00120544433594,-8.70048522949219,20.32848930358887,1.95766925811768,9.46352386474609,-0.93674319982529,2.14724230766296,-9.99577903747559,9.97091484069824
57,2173298032,101.03128814697266,-8.85510540008545,20.13498115539551,1.89089918136597,9.45394134521484,-0.99101388454437,0.27842304110527,-9.65363025665283,9.98822975158691
58,2173314699,101.03442382812500,-9.00806808471680,19.94967651367188,1.77711427211761,9.38561344146729,-1.29526770114899,-1.29008054733276,-9.18918323516846,9.79773521423340
59,2173331366,101.03732299804688,-9.15307044982910,19.76747703552246,1.56439328193665,9.12253093719482,-1.52648890018463,-1.30239999294281,-9.09662914276123,9.29167652130127
60,2173348033,101.05166625976562,-9.28637313842773,19.58482742309570,1.46572387218475,9.37371349334717,-1.67794871330261,-0.64849478006363,-9.25097370147705,8.60817813873291
61,2173364700,101.08003997802734,-9.39709663391113,19.40296173095703,1.38730394840240,9.58092021942139,-1.70964884757996,0.17412802577019,-9.46066379547119,7.27421569824219
62,2173381367,101.11353302001953,-9.48038291931152,19.22431182861328,1.33754646778107,9.47851085662842,-1.81953287124634,0.49342882633209,-9.58161830902100,5.62926292419434
63,2173398034,101.09334564208984,-9.53724384307861,19.04136848449707,1.29454100131989,9.72704410552979,-1.92928707599640,-2.78541445732117,-10.13208675384521,4.12509346008301
64,2173414701,100.97910308837891,-9.56667232513428,18.84507942199707,1.20854210853577,9.82997322082520,-1.89868342876434,-8.57437610626221,-11.22620105743408,2.65217113494873
65,2173431368,100.82618713378906,-9.56553077697754,18.62900352478027,1.17471158504486,9.91576766967773,-2.12461423873901,-11.09648895263672,-12.72981262207031,1.05100536346436
66,2173448035,100.70950317382812,-9.52041625976562,18.39299583435059,1.36205041408539,9.95374393463135,-2.35136246681213,-9.12279796600342,-14.38486862182617,-1.34688997268677
67,2173464702,100.66099548339844,-9.42092037200928,18.14114189147949,1.61530387401581,10.05455970764160,-2.47222614288330,-5.17732381820679,-15.91262817382812,-4.39635419845581
68,2173481369,100.64796447753906,-9.25526046752930,17.86876296997070,1.64478230476379,10.18570327758789,-2.71234250068665,-3.21968078613281,-17.84160614013672,-8.07987689971924
69,2173498036,100.56475830078125,-9.02350521087646,17.55745887756348,1.63827502727509,10.89798355102539,-2.65079164505005,-7.75513839721680,-20.83901596069336,-11.56591987609863
70,2173514703,100.31268310546875,-8.71916389465332,17.18091773986816,1.53755307197571,11.67287540435791,-2.34916305541992,-18.41156768798828,-25.41039466857910,-15.20643138885498
71,2173531370,99.96903228759766,-8.33616828918457,16.72377586364746,1.47426462173462,12.14412784576416,-2.74436163902283,-24.49447631835938,-30.89326286315918,-19.13636779785156
72,2173548037,99.71823883056641,-7.87520217895508,16.18099784851074,1.34263598918915,11.75862503051758,-2.80334496498108,-19.45657539367676,-36.63582611083984,-23.02846145629883
73,2173564704,99.77041625976562,-7.34402084350586,15.56236553192139,1.17646205425262,11.14851379394531,-3.18548321723938,-1.60761415958405,-41.78810882568359,-26.47393035888672
74,2173581371,100.17047119140625,-6.74420022964478,14.88475799560547,1.27040553092957,10.83819293975830,-3.06478929519653,19.17664527893066,-46.10298919677734,-29.74731826782227
75,2173598038,100.79860687255859,-6.07566070556641,14.16192054748535,1.61984837055206,10.43442535400391,-3.00754451751709,32.99388504028320,-49.80876541137695,-32.88784408569336
76,2173614705,101.52268981933594,-5.34439897537231,13.39802360534668,1.73415958881378,9.76254177093506,-3.32083487510681,39.02096557617188,-53.36315155029297,-35.51130676269531
77,2173631372,102.34486389160156,-4.55964851379395,12.58943748474121,1.56579864025116,9.52498912811279,-3.68971705436707,45.26196289062500,-57.15352630615234,-37.37159347534180
78,2173648039,103.24284362792969,-3.73067879676819,11.72951316833496,1.86261141300201,9.56140327453613,-2.96768999099731,50.25407791137695,-61.32107543945312,-38.41270065307617
79,2173664706,104.13346099853516,-2.86108827590942,10.82361602783203,1.83071219921112,10.13594341278076,-2.32844901084900,50.40338516235352,-65.20127868652344,-39.16544342041016
80,2173681373,104.75704193115234,-1.95176351070404,9.87150573730469,1.92831039428711,10.86573505401611,-1.66811060905457,35.10705566406250,-69.01070404052734,-39.92040634155273
81,2173698040,104.87183380126953,-0.99811613559723,8.86864376068115,2.10535478591919,11.13992881774902,-1.91413080692291,5.43211460113525,-72.91490936279297,-41.27112197875977
82,2173714707,104.41523742675781,-0.00349236140028,7.81394290924072,2.25065803527832,11.19974803924561,-2.17222905158997,-27.85115242004395,-76.44137573242188,-43.09153747558594
83,2173731374,103.43312072753906,1.03328001499176,6.71272468566895,2.03045010566711,11.22260189056396,-2.23992443084717,-58.23271179199219,-79.23161315917969,-45.84691238403320
84,2173748041,101.94933319091797,2.11021471023560,5.57111978530884,1.74302875995636,11.15959072113037,-2.39198327064514,-87.04969787597656,-81.12480926513672,-49.38108062744141
85,2173764708,100.01416778564453,3.22540497779846,4.39649438858032,1.42762863636017,11.37237930297852,-1.83227062225342,-112.73482513427734,-81.97760772705078,-53.68214035034180
86,2173781375,97.73775482177734,4.37602090835571,3.20541977882385,1.18116879463196,11.06342697143555,-1.38164806365967,-131.75401306152344,-81.21997070312500,-58.63254547119141
87,2173798042,95.32752990722656,5.55676460266113,2.01913881301880,0.90323680639267,10.77499389648438,-0.66890853643417,-138.36439514160156,-78.60897827148438,-63.76051330566406
88,2173814709,93.10323333740234,6.76001453399658,0.86924666166306,0.85279297828674,10.07419109344482,-0.00135220587254,-125.97357940673828,-73.79858398437500,-68.41544342041016
89,2173831376,91.31751251220703,7.98403453826904,-0.22578175365925,1.02185916900635,9.31964874267578,0.33407619595528,-98.63709259033203,-68.00865173339844,-72.34487152099609
90,2173848043,90.15031433105469,9.22810268402100,-1.26015949249268,1.19157111644745,9.07299709320068,0.58297574520111,-60.67474365234375,-62.36791229248047,-75.33814239501953
91,2173864710,89.73251342773438,10.49641418457031,-2.23239064216614,1.33364856243134,8.98155593872070,0.07099570333958,-15.01531600952148,-57.43709564208984,-77.66132354736328
92,2173881377,90.15579223632812,11.78429889678955,-3.13497066497803,1.51784539222717,9.39393997192383,-0.17482511699200,35.91169357299805,-53.10379409790039,-78.84889984130859
93,2173898044,91.47321319580078,13.08612060546875,-3.94991254806519,1.41830527782440,9.06160068511963,-1.06264233589172,89.61080932617188,-48.90549468994141,-78.97148132324219
94,2173914711,93.67331695556641,14.40629005432129,-4.66046714782715,0.96232485771179,7.86871051788330,-1.30101287364960,142.15731811523438,-44.99441528320312,-78.84561157226562
95,2173931378,96.72537231445312,15.76563549041748,-5.26614093780518,0.02286401763558,7.20166730880737,-0.10845140367746,192.58392333984375,-42.42966079711914,-79.64306640625000
96,2173948045,100.37323760986328,17.18445587158203,-5.79984378814697,-1.18745601177216,8.73162746429443,0.39847242832184,227.95027160644531,-43.14750289916992,-81.22737884521484
97,2173964712,103.97508239746094,18.66526603698730,-6.32550334930420,-1.96084547042847,10.34490489959717,1.45397031307220,225.82072448730469,-48.22637176513672,-82.13260650634766
98,2173981379,107.15476226806641,20.20013427734375,-6.85204076766968,-2.81055068969727,11.51396179199219,-0.23248255252838,201.31565856933594,-53.58375549316406,-82.33026885986328
99,2173998046,109.78721618652344,21.76893234252930,-7.33836030960083,-3.12805676460266,10.44935512542725,-0.77601444721222,168.43713378906250,-55.85597991943359,-82.25384521484375
100,2174014713,111.85726928710938,23.33787918090820,-7.74665975570679,-2.50623941421509,10.31204891204834,-1.41244018077850,133.65551757812500,-54.81376266479492,-81.54859161376953
101,2174031380,113.69225311279297,24.86566925048828,-8.03559398651123,-2.45897269248962,9.87114238739014,-1.89030551910400,117.24570465087891,-50.29177093505859,-80.00226593017578
102,2174048047,115.33477020263672,26.33923721313477,-8.20637702941895,-2.88633704185486,8.91011905670166,-1.04728138446808,103.05953216552734,-45.31750869750977,-78.22312164306641
103,2174064714,116.80530548095703,27.74971389770508,-8.28153800964355,-3.09862375259399,7.45694732666016,-1.18061554431915,90.37748718261719,-41.03230667114258,-75.86923980712891
104,2174081381,118.24388122558594,29.08863258361816,-8.26580619812012,-2.95276093482971,7.28463697433472,-2.04044699668884,85.97245025634766,-36.62326049804688,-73.24100494384766
105,2174098048,119.68938446044922,30.35387611389160,-8.18112945556641,-3.31626915931702,7.27076387405396,-3.11545324325562,84.32593536376953,-33.14633178710938,-70.17197418212891
106,2174114715,121.14079284667969,31.55589485168457,-8.05748844146729,-3.67794156074524,8.20243263244629,-3.93357157707214,83.38596343994141,-31.27484893798828,-67.03412628173828
107,2174131382,122.60132598876953,32.70329284667969,-7.92097139358521,-4.38445520401001,7.70211410522461,-4.02086877822876,83.39503479003906,-30.71963691711426,-63.74802017211914
108,2174148049,124.11493682861328,33.79244995117188,-7.77973413467407,-4.65459442138672,6.99310159683228,-4.23412036895752,86.29083251953125,-30.28355598449707,-60.10035324096680
109,2174164716,125.70873260498047,34.81318664550781,-7.61713123321533,-4.83999061584473,6.69242143630981,-3.93664073944092,90.25219726562500,-28.72168731689453,-56.45107650756836
110,2174181383,127.38556671142578,35.76203918457031,-7.42954158782959,-5.36466121673584,6.05190944671631,-3.68064069747925,94.23044586181641,-26.80732917785645,-52.81781387329102
111,2174198050,129.11557006835938,36.63694763183594,-7.22028779983521,-6.08865499496460,6.08329963684082,-3.62406015396118,96.50994110107422,-24.83435630798340,-49.09952163696289
112,2174214717,130.87855529785156,37.44715499877930,-7.00382184982300,-6.74138927459717,5.67822217941284,-3.13745594024658,98.08349609375000,-23.59921646118164,-45.49491882324219
113,2174231384,132.69467163085938,38.19323730468750,-6.78575086593628,-6.91130065917969,5.42739820480347,-3.70286226272583,101.07871246337891,-22.41654777526855,-41.84131622314453
114,2174248051,134.58419799804688,38.87030029296875,-6.56007766723633,-6.90916156768799,5.44923877716064,-4.49106311798096,105.07259368896484,-20.66181564331055,-38.27053070068359
115,2174264718,136.56866455078125,39.48239898681641,-6.32804679870605,-7.01950645446777,5.21678638458252,-4.41527748107910,110.41162872314453,-18.97218704223633,-34.96320343017578
116,2174281385,138.63833618164062,40.03952407836914,-6.09757661819458,-7.20991992950439,5.01698637008667,-4.67231607437134,115.47512817382812,-17.81724929809570,-31.92318725585938
117,2174298052,140.76416015625000,40.55233001708984,-5.87591505050659,-7.42938613891602,4.55254793167114,-4.35723066329956,119.09043121337891,-17.20710182189941,-29.15638732910156
118,2174314719,142.92227172851562,41.02225875854492,-5.66170740127563,-7.70879173278809,4.09975147247314,-4.80921077728271,121.23253631591797,-16.46077728271484,-26.57567787170410
119,2174331386,145.08328247070312,41.44186782836914,-5.44901371002197,-7.73894834518433,4.17309617996216,-5.28736734390259,121.39018249511719,-15.03085899353027,-24.05105590820312
120,2174348053,147.22755432128906,41.81498718261719,-5.24071550369263,-7.82010698318481,3.88809943199158,-5.20939111709595,120.49522399902344,-13.69073963165283,-21.69863319396973
121,2174364720,149.34190368652344,42.15466308593750,-5.04268503189087,-7.78765726089478,3.84319639205933,-5.11807870864868,119.05611419677734,-12.99647426605225,-19.68334960937500
122,2174381387,151.43939208984375,42.46436691284180,-4.85680770874023,-7.52678871154785,3.29799032211304,-5.34465742111206,118.48236083984375,-12.37959003448486,-17.79612159729004
123,2174398054,153.55393981933594,42.74149703979492,-4.66999959945679,-7.31690835952759,2.70991039276123,-5.24697732925415,119.42916107177734,-11.23707008361816,-16.42460250854492
124,2174414721,155.70419311523438,42.97428131103516,-4.48277378082275,-7.27764034271240,2.26935648918152,-5.08374214172363,121.51405334472656,-9.38995552062988,-14.83951187133789
125,2174431388,157.90013122558594,43.15917968750000,-4.28918409347534,-7.23633289337158,1.93198418617249,-5.15919399261475,123.96140289306641,-7.15190076828003,-13.56906700134277
126,2174448055,160.13630676269531,43.29801940917969,-4.09240102767944,-7.21199607849121,1.85509479045868,-5.22015857696533,126.22105407714844,-4.99185895919800,-12.39802551269531
127,2174464722,162.39524841308594,43.39833450317383,-3.89187431335449,-7.19768047332764,1.82288169860840,-5.49550247192383,127.40916442871094,-3.18229937553406,-11.58780956268311
128,2174481389,164.65936279296875,43.46281814575195,-3.69178771972656,-6.89337682723999,1.81628561019897,-6.06807184219360,127.72370910644531,-1.53085100650787,-10.81297206878662
129,2174498056,166.91703796386719,43.49906539916992,-3.49038028717041,-6.74259233474731,1.64346718788147,-6.39428377151489,127.27368164062500,-0.24774667620659,-10.37789535522461
130,2174514723,169.14961242675781,43.51293563842773,-3.28896617889404,-6.50394821166992,1.49648416042328,-7.02652072906494,125.76416778564453,0.70577186346054,-10.07904148101807
131,2174531390,171.32827758789062,43.51783370971680,-3.08469891548157,-6.38888311386108,1.11534750461578,-7.35847043991089,122.40983581542969,0.91175812482834,-10.13209629058838
132,2174548057,173.43077087402344,43.52300643920898,-2.87128782272339,-6.34739303588867,0.59492343664169,-7.52989578247070,117.45898437500000,0.61111056804657,-10.55424880981445
133,2174564724,175.43225097656250,43.52984237670898,-2.64483928680420,-6.42611980438232,-0.03089807182550,-7.66999149322510,110.85474395751953,0.22568334639072,-11.14475822448730
134,2174581391,177.32447814941406,43.53554916381836,-2.40320634841919,-6.47192716598511,-0.42596027255058,-7.79806661605835,103.66864013671875,-0.00666596135125,-11.79572200775146
135,2174598058,179.10174560546875,43.53785324096680,-2.15007829666138,-6.49321794509888,-0.82764655351639,-7.77964639663696,96.28709411621094,-0.13154476881027,-12.28170299530029
136,2174614725,-179.24714660644531,43.53513336181641,-1.88853454589844,-6.40626859664917,-1.03737461566925,-7.87853431701660,88.36625671386719,-0.16427804529667,-12.63510417938232
137,2174631392,-177.73716735839844,43.53456115722656,-1.62441635131836,-6.37106561660767,-1.25636196136475,-7.76272726058960,79.78672027587891,-0.61617249250412,-12.72929859161377
138,2174648059,-176.36918640136719,43.53794860839844,-1.36271083354950,-6.40860986709595,-1.53479838371277,-7.88561773300171,71.35987091064453,-1.14203369617462,-12.58986663818359
139,2174664726,-175.14694213867188,43.54264068603516,-1.10252487659454,-6.31576156616211,-1.49305653572083,-8.15307712554932,62.67100143432617,-1.47656130790710,-12.48458290100098
140,2174681393,-174.07440185546875,43.54687881469727,-0.84607899188995,-6.51387786865234,-1.53216934204102,-7.68661594390869,53.83736038208008,-1.66410696506500,-12.28952121734619
141,2174698060,-173.16235351562500,43.55496978759766,-0.59698396921158,-6.41749572753906,-1.34959709644318,-7.40478849411011,44.50759887695312,-2.05576133728027,-11.91024494171143
142,2174714727,-172.43684387207031,43.56727600097656,-0.34980708360672,-6.52994775772095,-1.04800593852997,-7.24405765533447,33.39067077636719,-2.44789981842041,-11.76199913024902
143,2174731394,-171.91040039062500,43.58347702026367,-0.10998275876045,-6.59271144866943,-0.80954813957214,-7.20391750335693,21.74575424194336,-2.75161051750183,-11.38373661041260
144,2174748061,-171.56690979003906,43.60054779052734,0.12622828781605,-6.67415094375610,-0.65617901086807,-7.01878595352173,10.91691017150879,-2.85714387893677,-11.19829845428467
145,2174764728,-171.38243103027344,43.62117767333984,0.36368921399117,-6.65405416488647,-0.54699903726578,-6.86240434646606,1.32207679748535,-3.11981391906738,-11.20596408843994
146,2174781395,-171.32392883300781,43.64856719970703,0.60336160659790,-6.51627779006958,-0.63471543788910,-6.72760057449341,-6.33035516738892,-3.55208015441895,-11.23230838775635
147,2174798062,-171.35118103027344,43.68011093139648,0.84625858068466,-6.44324159622192,-0.65009433031082,-6.82870340347290,-11.61340522766113,-3.81768560409546,-11.32962894439697
148,2174814729,-171.42915344238281,43.71070480346680,1.08754420280457,-6.61617565155029,-0.67474806308746,-7.02003383636475,-14.59297466278076,-3.73919558525085,-11.26831436157227
149,2174831396,-171.52966308593750,43.74372100830078,1.32886803150177,-6.62769317626953,-0.80211347341537,-6.86368131637573,-15.95051670074463,-3.86367464065552,-11.25047683715820
150,2174848063,-171.63284301757812,43.78008270263672,1.56955027580261,-6.47794103622437,-0.76122635602951,-6.94242382049561,-16.09132385253906,-4.03686809539795,-11.19622993469238
151,2174864730,-171.72418212890625,43.82258987426758,1.81376504898071,-6.46860313415527,-0.85564202070236,-6.86534643173218,-15.53137779235840,-4.40351438522339,-11.29450511932373
152,2174881397,-171.79598999023438,43.86653518676758,2.05782461166382,-6.46535015106201,-0.75314432382584,-6.77252388000488,-14.36258697509766,-4.47104120254517,-11.27656173706055
153,2174898064,-171.84703063964844,43.90833663940430,2.28950548171997,-6.55502796173096,-0.73927325010300,-7.00142431259155,-12.60817909240723,-4.25214147567749,-10.76269245147705
154,2174914731,-171.88035583496094,43.94719696044922,2.50766515731812,-6.61155462265015,-0.68159115314484,-7.15825748443604,-10.98989868164062,-3.98542237281799,-10.20745658874512
155,2174931398,-171.91700744628906,43.99360275268555,2.71097207069397,-6.58573389053345,-0.73375308513641,-7.01022195816040,-10.57597160339355,-4.33623933792114,-9.50464248657227
156,2174948065,-171.96723937988281,44.05071640014648,2.90667223930359,-6.52384901046753,-0.81309545040131,-6.82868766784668,-11.07963371276855,-4.91759729385376,-9.08661746978760
157,2174964732,-172.03367614746094,44.11665344238281,3.09042525291443,-6.55633211135864,-0.72895938158035,-6.82628488540649,-11.56227970123291,-5.35925102233887,-8.50003528594971
158,2174981399,-172.10324096679688,44.18273925781250,3.25842285156250,-6.66622447967529,-0.69277691841125,-6.92234373092651,-11.10187721252441,-5.26062774658203,-7.82572937011719
159,2174998066,-172.16548156738281,44.24588775634766,3.40589952468872,-6.75256443023682,-0.70404618978500,-6.91748428344727,-9.81085395812988,-4.95495223999023,-6.97480916976929
160,2175014733,-172.22659301757812,44.31135940551758,3.53599286079407,-6.66329097747803,-0.69860607385635,-6.81960153579712,-9.02167415618896,-4.98152494430542,-6.21621131896973
161,2175031400,-172.30340576171875,44.38521194458008,3.65104269981384,-6.64453840255737,-0.69903904199600,-6.71562433242798,-9.33925819396973,-5.38493776321411,-5.50845479965210
162,2175048067,-172.39224243164062,44.46813964843750,3.75328803062439,-6.68952512741089,-0.73082721233368,-6.73910617828369,-9.52970409393311,-5.84138298034668,-4.89467334747314
163,2175064734,-172.48152160644531,44.55216217041016,3.83660483360291,-6.74260139465332,-0.76472145318985,-6.90306568145752,-8.76635360717773,-5.79166793823242,-4.08639907836914
164,2175081401,-172.56274414062500,44.63367462158203,3.89640688896179,-6.70514774322510,-0.70651525259018,-7.04523992538452,-7.29820680618286,-5.50462484359741,-3.11294913291931
165,2175098068,-172.64242553710938,44.71828842163086,3.93490672111511,-6.54000282287598,-0.68207377195358,-6.98414707183838,-6.31060647964478,-5.56688976287842,-2.19304347038269
166,2175114735,-172.73597717285156,44.81407928466797,3.95792388916016,-6.49823808670044,-0.68963611125946,-6.80288314819336,-6.49263572692871,-6.14680004119873,-1.45836830139160
167,2175131402,-172.85641479492188,44.92248153686523,3.96487545967102,-6.51059627532959,-0.59920608997345,-6.87912321090698,-7.42706489562988,-6.81057882308960,-0.69683855772018
168,2175148069,-173.00679016113281,45.03424453735352,3.95320010185242,-6.58293771743774,-0.63780939579010,-6.90644502639771,-8.43503952026367,-6.91327381134033,0.09649588167667
169,2175164736,-173.18750000000000,45.14223098754883,3.91935348510742,-6.59071207046509,-0.68210786581039,-6.73509073257446,-9.31169891357422,-6.57989835739136,0.98169672489166
170,2175181403,-173.40995788574219,45.25523757934570,3.86311364173889,-6.52512598037720,-0.64637655019760,-6.61873245239258,-10.86048984527588,-6.77611923217773,1.93187761306763
171,2175198070,-173.68943786621094,45.37453842163086,3.78425359725952,-6.39344501495361,-0.62005728483200,-6.74790477752686,-13.31371688842773,-7.05666971206665,2.88898706436157
172,2175214737,-174.03027343750000,45.50136184692383,3.68602466583252,-6.42442655563354,-0.58319795131683,-6.85637617111206,-16.16123962402344,-7.44020891189575,3.70251154899597
173,2175231404,-174.42422485351562,45.63677978515625,3.56223368644714,-6.54611349105835,-0.55728554725647,-6.89608860015869,-18.24466133117676,-7.87934207916260,4.76613283157349
174,2175248071,-174.85891723632812,45.77869033813477,3.41317725181580,-6.58246850967407,-0.38560926914215,-6.90720844268799,-19.59297370910645,-8.21255302429199,5.78750658035278
175,2175264738,-175.32371520996094,45.92524719238281,3.24095797538757,-6.55819511413574,-0.37833970785141,-6.87877082824707,-20.38588714599609,-8.46576213836670,6.69521141052246
176,2175281405,-175.83958435058594,46.07740402221680,3.04370689392090,-6.54648542404175,-0.24498784542084,-6.48000001907349,-22.35210418701172,-8.78687191009521,7.67016267776489
177,2175298072,-176.42387390136719,46.23528671264648,2.81969881057739,-6.52266073226929,-0.12478955835104,-6.31608009338379,-25.27813720703125,-9.14132022857666,8.69639492034912
178,2175314739,-177.09295654296875,46.39258956909180,2.56346011161804,-6.58958292007446,-0.09095774590969,-6.26578664779663,-28.94240188598633,-9.13824081420898,9.90141963958740
179,2175331406,-177.84504699707031,46.54488372802734,2.27481198310852,-6.71452522277832,0.02362118288875,-6.27341222763062,-32.48584747314453,-8.91416072845459,11.08222770690918
180,2175348073,-178.69465637207031,46.69271087646484,1.95199406147003,-6.75257587432861,0.10158021748066,-6.27051734924316,-36.81699371337891,-8.77436447143555,12.32354259490967
181,2175364740,-179.65716552734375,46.84077453613281,1.59608685970306,-6.63015031814575,0.12203572690487,-6.29960060119629,-42.11075973510742,-8.97890949249268,13.50855350494385
182,2175381407,179.26344299316406,46.99573516845703,1.20897948741913,-6.59265184402466,0.18798588216305,-6.36121416091919,-47.72075271606445,-9.65576171875000,14.58260726928711
183,2175398074,178.08096313476562,47.15539550781250,0.79304069280624,-6.68103742599487,0.22795188426971,-6.53092145919800,-52.59476089477539,-10.27180957794189,15.51721191406250
184,2175414741,176.81059265136719,47.31412506103516,0.34458136558533,-6.82403326034546,0.39307445287704,-6.64238309860229,-56.39203262329102,-10.62994861602783,16.57165145874023
185,2175431408,175.45756530761719,47.47107696533203,-0.14155666530132,-6.93169641494751,0.50586003065109,-6.73905944824219,-59.63918304443359,-11.02422714233398,17.80585479736328
186,2175448075,174.01200866699219,47.62720489501953,-0.66159170866013,-7.00517368316650,0.78522419929504,-6.88290691375732,-63.63975524902344,-11.55623149871826,18.84730339050293
187,2175464742,172.45202636718750,47.78958511352539,-1.21489286422729,-6.89759540557861,1.03750443458557,-6.81647300720215,-68.97159576416016,-12.60293102264404,19.76568794250488
188,2175481409,170.77322387695312,47.96380996704102,-1.79314863681793,-6.67404413223267,1.12020742893219,-6.86624050140381,-74.92720031738281,-14.03013134002686,20.22292327880859
189,2175498076,168.98236083984375,48.14857864379883,-2.39527344703674,-6.69099807739258,1.40590059757233,-6.90128278732300,-80.51489257812500,-15.44979763031006,20.54277420043945
190,2175514743,167.09231567382812,48.33650588989258,-3.01971673965454,-6.89514636993408,1.48539614677429,-6.70290660858154,-85.39139556884766,-16.49605178833008,20.78502464294434
191,2175531410,165.12335205078125,48.52273559570312,-3.66673588752747,-7.12965011596680,1.62306082248688,-6.56366920471191,-89.03396606445312,-17.32321166992188,21.03048515319824
192,2175548077,163.09989929199219,48.70394134521484,-4.33799171447754,-7.24500465393066,1.93635547161102,-6.52543163299561,-91.13278961181641,-18.03399658203125,21.33397102355957
193,2175564744,161.05187988281250,48.88029098510742,-5.02938699722290,-7.31586837768555,2.14055585861206,-6.36752843856812,-91.61878204345703,-18.76118659973145,21.44034194946289
194,2175581411,159.00462341308594,49.05063629150391,-5.74151468276978,-7.30757331848145,2.64587855339050,-6.16020441055298,-90.55511474609375,-19.46559906005859,21.56120109558105
195,2175598078,156.97602844238281,49.21306610107422,-6.47452640533447,-7.46400165557861,3.04451394081116,-5.99559974670410,-88.40796661376953,-20.09264183044434,21.70915412902832
196,2175614745,154.98466491699219,49.36209869384766,-7.22632741928101,-7.53472280502319,3.27154207229614,-5.83282995223999,-85.24237823486328,-20.41241836547852,21.90740394592285
197,2175631412,153.04612731933594,49.49225997924805,-7.99420738220215,-7.39887428283691,3.37066006660461,-5.70200586318970,-81.26990509033203,-20.41008949279785,22.18067169189453
198,2175648079,151.18397521972656,49.60061645507812,-8.77171325683594,-7.15146303176880,3.37746620178223,-5.58395862579346,-76.18540954589844,-20.15677070617676,22.37259483337402
199,2175664746,149.41157531738281,49.69337463378906,-9.56018066406250,-7.00676870346069,3.45298957824707,-5.25579500198364,-70.24760437011719,-20.26161766052246,22.50316810607910
200,2175681413,147.73774719238281,49.76916122436523,-10.36327457427979,-6.94054698944092,3.61586737632751,-5.35062456130981,-63.62123870849609,-20.36478042602539,22.85429382324219
201,2175698080,146.15312194824219,49.82547378540039,-11.18607330322266,-6.95395278930664,3.84708333015442,-5.68796014785767,-57.33169174194336,-20.45458793640137,23.50850486755371
202,2175714747,144.65316772460938,49.86593627929688,-12.03051280975342,-7.18410205841064,4.00103378295898,-5.67312383651733,-51.23759841918945,-20.79001235961914,24.15380096435547
203,2175731414,143.23393249511719,49.89732742309570,-12.90249443054199,-7.31420803070068,4.11979341506958,-5.73679065704346,-45.11133956909180,-21.60551452636719,24.77938079833984
204,2175748081,141.89071655273438,49.92678833007812,-13.80633735656738,-7.46083450317383,4.39314508438110,-5.24459457397461,-39.07482910156250,-22.87362861633301,25.28470039367676
205,2175764748,140.62475585937500,49.95096969604492,-14.73377704620361,-7.30677080154419,4.32583475112915,-5.37199878692627,-33.34148406982422,-23.78366661071777,25.65230178833008
206,2175781415,139.41632080078125,49.95827865600586,-15.66981983184814,-7.12393903732300,4.98123264312744,-5.76062726974487,-29.49026489257812,-23.79126930236816,26.03057289123535
207,2175798082,138.22225952148438,49.94989776611328,-16.61660766601562,-7.28051662445068,4.82278442382812,-5.15072298049927,-28.13584899902344,-23.92993164062500,26.45826339721680
208,2175814749,137.00242614746094,49.93995666503906,-17.58431625366211,-7.25531244277954,5.12434339523315,-5.04780340194702,-28.73019409179688,-24.99041557312012,26.61331748962402
209,2175831416,135.73426818847656,49.93220138549805,-18.57666587829590,-7.09885263442993,5.10582160949707,-5.09247636795044,-30.50889778137207,-26.34913253784180,26.66639328002930
210,2175848083,134.43919372558594,49.92216110229492,-19.58772659301758,-7.13818025588989,4.92040538787842,-4.49151134490967,-31.27348709106445,-27.38849449157715,26.68423271179199
211,2175864750,133.13940429687500,49.90261840820312,-20.60664367675781,-7.07736396789551,5.18853473663330,-4.22673940658569,-31.20849418640137,-27.84897422790527,26.68869018554688
212,2175881417,131.84297180175781,49.85717391967773,-21.62021636962891,-6.91426706314087,5.43378639221191,-4.46606874465942,-31.27544403076172,-27.29315757751465,27.07663154602051
213,2175898084,130.54029846191406,49.78145217895508,-22.62362480163574,-6.79559135437012,5.70008802413940,-4.23665285110474,-32.15969085693359,-26.47663497924805,27.58967590332031
214,2175914751,129.20173645019531,49.68330001831055,-23.63336944580078,-7.30134677886963,5.96615076065063,-3.80951118469238,-34.08287429809570,-26.51490211486816,28.20670700073242
215,2175931418,127.82150268554688,49.57197189331055,-24.65341758728027,-7.36906242370605,5.74232006072998,-4.08241796493530,-36.18666458129883,-27.09523010253906,28.48577690124512
216,2175948085,126.40409851074219,49.44460296630859,-25.68742179870605,-7.27514982223511,5.92588520050049,-3.48633694648743,-37.86546325683594,-27.74359512329102,28.97268295288086
217,2175964752,124.99156188964844,49.28988265991211,-26.72688865661621,-7.29671382904053,5.66118144989014,-2.94612455368042,-37.42108535766602,-27.79034042358398,29.80639266967773
218,2175981419,123.61560821533203,49.09069061279297,-27.74818420410156,-7.03804349899292,6.09417247772217,-3.69600820541382,-36.17932128906250,-26.56398200988770,31.00604438781738
219,2175998086,122.25918579101562,48.83995056152344,-28.73783302307129,-7.10234975814819,6.44286203384399,-3.70856690406799,-36.60214614868164,-24.75139617919922,32.37940216064453
220,2176014753,120.88391113281250,48.55236053466797,-29.72226142883301,-7.31575059890747,6.72443294525146,-3.24197506904602,-38.15310287475586,-24.39457130432129,33.66679000854492
221,2176031420,119.46449279785156,48.24668121337891,-30.72652435302734,-7.46130323410034,6.86274385452271,-3.65939092636108,-40.11483001708984,-25.57421112060547,34.50935363769531
222,2176048087,118.02688598632812,47.92272949218750,-31.74787712097168,-7.44919300079346,6.87766027450562,-4.24294948577881,-40.66561508178711,-26.75057029724121,35.27213287353516
223,2176064754,116.63543701171875,47.57475280761719,-32.76282119750977,-7.61945533752441,6.33214473724365,-4.07684993743896,-38.42963027954102,-26.99514579772949,35.88392257690430
224,2176081421,115.32976531982422,47.19898986816406,-33.76459503173828,-7.64877891540527,6.09277629852295,-3.57490897178650,-34.13256454467773,-26.91069030761719,36.63016128540039
225,2176098088,114.11862945556641,46.79800033569336,-34.75123977661133,-7.40191793441772,5.90257072448730,-3.38606190681458,-29.40837669372559,-26.81400108337402,37.27933502197266
226,2176114755,112.99267578125000,46.37751770019531,-35.72440338134766,-7.28002119064331,6.07523632049561,-3.18943738937378,-25.18266105651855,-26.90578460693359,37.70376586914062
227,2176131422,111.93887329101562,45.94388580322266,-36.68562698364258,-7.10334348678589,6.12901926040649,-3.32280349731445,-21.67905235290527,-27.17484474182129,37.85131454467773
228,2176148089,110.95406341552734,45.50415420532227,-37.63179016113281,-6.93596172332764,6.31440401077271,-3.37722182273865,-18.49588012695312,-27.44401359558105,37.59560012817383
229,2176164756,110.03764343261719,45.06826782226562,-38.56779098510742,-6.85641098022461,6.19131755828857,-3.00477862358093,-15.14298534393311,-28.05779647827148,36.87870788574219
230,2176181423,109.20027923583984,44.64112472534180,-39.48580169677734,-6.73464298248291,6.10957384109497,-2.57647204399109,-11.46606826782227,-28.38036537170410,35.80054473876953
231,2176198090,108.44351196289062,44.22491073608398,-40.37717819213867,-6.50339794158936,6.11427021026611,-2.72052407264709,-8.04336166381836,-28.29536819458008,34.51239013671875
232,2176214757,107.75332641601562,43.81789016723633,-41.23268508911133,-6.55907821655273,6.02395248413086,-2.31224393844604,-5.82511568069458,-27.70391273498535,33.23658370971680
233,2176231424,107.11403656005859,43.42926406860352,-42.06146621704102,-6.64420795440674,6.08524608612061,-1.82980537414551,-4.14356470108032,-27.56175613403320,31.59170532226562
234,2176248091,106.48787689208984,43.06607437133789,-42.87378311157227,-6.55248737335205,6.20118713378906,-2.05232620239258,-4.27272891998291,-27.88805961608887,29.68803596496582
235,2176264758,105.88281250000000,42.72816467285156,-43.66379165649414,-6.52736282348633,6.18073225021362,-2.01130867004395,-4.14171791076660,-27.89658927917480,27.72071266174316
236,2176281425,105.31681823730469,42.41767501831055,-44.43420410156250,-6.58978557586670,6.15280389785767,-1.67013537883759,-2.79184317588806,-27.97660636901855,25.67373657226562
237,2176298092,104.79884338378906,42.13886642456055,-45.18439865112305,-6.66258335113525,6.20108127593994,-1.54874801635742,-0.90880030393600,-28.00943756103516,23.38649940490723
238,2176314759,104.34290313720703,41.89211654663086,-45.90914535522461,-6.82762813568115,6.23539781570435,-1.46719110012054,1.63966786861420,-27.73829269409180,21.04606819152832
239,2176331426,103.95365142822266,41.67510986328125,-46.61016082763672,-6.84825038909912,6.28156948089600,-1.43042349815369,4.55396842956543,-27.41921234130859,18.88648223876953
240,2176348093,103.62817382812500,41.48480224609375,-47.28675842285156,-6.78705072402954,6.56727838516235,-1.46493577957153,7.29703426361084,-26.95765304565430,16.93026351928711
241,2176364760,103.35514831542969,41.32498931884766,-47.94757843017578,-6.63226270675659,6.57339811325073,-1.53746509552002,9.71955585479736,-26.86511230468750,14.87136459350586
242,2176381427,103.12160491943359,41.19548416137695,-48.59579467773438,-6.43374729156494,6.84407091140747,-1.67978632450104,11.51233482360840,-26.86258506774902,12.87316799163818
243,2176398094,102.90729522705078,41.09693527221680,-49.24240493774414,-6.36017704010010,6.71059036254883,-1.49247860908508,12.54397869110107,-27.31667518615723,10.96005821228027
244,2176414761,102.71173858642578,41.02922058105469,-49.89049911499023,-6.35218095779419,6.79783582687378,-1.56367969512939,13.68335151672363,-27.87205314636230,9.08635616302490
245,2176431428,102.54638671875000,40.98746871948242,-50.53030776977539,-6.33574247360229,6.93934011459351,-1.74331223964691,15.13857173919678,-27.90221023559570,7.40715599060059
246,2176448095,102.41868591308594,40.96303176879883,-51.15945434570312,-6.41770076751709,6.98830413818359,-1.58215963840485,16.96072959899902,-27.69339370727539,6.22433185577393
247,2176464762,102.31867980957031,40.95190811157227,-51.78212356567383,-6.47687530517578,7.16197395324707,-1.52444815635681,18.35511970520020,-27.60107994079590,5.33124065399170
248,2176481429,102.23421478271484,40.95054626464844,-52.40482330322266,-6.47682571411133,7.15435791015625,-1.62853157520294,19.28129386901855,-27.73887825012207,4.71831369400024
249,2176498096,102.16477966308594,40.95509719848633,-53.03087234497070,-6.52105855941772,7.12587261199951,-1.51913356781006,20.31636047363281,-27.97073173522949,4.37163305282593
250,2176514763,102.13318634033203,40.96673583984375,-53.66119003295898,-6.52561616897583,7.04775762557983,-1.43795347213745,22.75581359863281,-28.25197219848633,3.97587800025940
251,2176531430,102.15248870849609,40.98029708862305,-54.29734802246094,-6.54705286026001,7.13226747512817,-1.47554087638855,26.04599952697754,-28.53023147583008,3.91910934448242
252,2176548097,102.22882080078125,40.99535751342773,-54.93362045288086,-6.34928512573242,7.29014301300049,-1.87646210193634,29.47432327270508,-28.54270172119141,3.85659122467041
253,2176564764,102.34716796875000,41.00931167602539,-55.56731033325195,-6.18168783187866,7.42411661148071,-1.92877745628357,31.90056991577148,-28.40234375000000,3.94810819625854
254,2176581431,102.48557281494141,41.01803588867188,-56.20748138427734,-6.23168849945068,7.42706918716431,-1.75071132183075,33.36026763916016,-28.60841178894043,4.38173532485962
255,2176598098,102.61849212646484,41.01942443847656,-56.86347579956055,-6.48141384124756,7.27217769622803,-1.25281083583832,33.65559387207031,-29.19816398620605,5.03562068939209
256,2176614765,102.73411560058594,41.00947570800781,-57.53881072998047,-6.64062452316284,7.14786672592163,-1.24435806274414,33.37706375122070,-29.89045524597168,5.95764636993408
257,2176631432,102.84733581542969,40.98099899291992,-58.21722793579102,-6.69784307479858,7.31028699874878,-1.48693501949310,33.34240722656250,-29.77376747131348,7.13818359375000
258,2176648099,102.95345306396484,40.93187713623047,-58.88940811157227,-6.70719575881958,7.37202739715576,-1.53411722183228,32.65060424804688,-29.22241401672363,8.34860706329346
259,2176664766,103.02230072021484,40.86022567749023,-59.56188583374023,-6.73483610153198,7.40837526321411,-1.29713189601898,30.39466285705566,-28.94635963439941,9.72445011138916
260,2176681433,103.01292419433594,40.76930999755859,-60.25110626220703,-6.83212232589722,7.27846813201904,-1.27616357803345,26.31251907348633,-29.45408058166504,11.04750156402588
261,2176698100,102.91731262207031,40.66238021850586,-60.95938491821289,-6.77151012420654,7.25495862960815,-1.64832842350006,21.83065032958984,-30.13726997375488,12.16658401489258
262,2176714767,102.73725128173828,40.53570175170898,-61.68040466308594,-6.65959930419922,7.22312450408936,-1.52337110042572,17.19226646423340,-30.52761650085449,13.39673709869385
263,2176731434,102.48049163818359,40.38800811767578,-62.40995407104492,-6.47908687591553,7.19203138351440,-1.56581962108612,12.84613418579102,-30.75406074523926,14.61553287506104
264,2176748101,102.14327239990234,40.21524047851562,-63.14535903930664,-6.39108610153198,7.27822494506836,-1.77883541584015,8.14730262756348,-30.85089302062988,16.00311088562012
265,2176764768,101.71167755126953,40.01863479614258,-63.89668655395508,-6.37990331649780,7.20158576965332,-1.64704692363739,2.99149370193481,-31.47618293762207,17.36954307556152
266,2176781435,101.17594146728516,39.79921340942383,-64.67174530029297,-6.46468544006348,7.28187322616577,-1.72259092330933,-2.46890354156494,-32.53440475463867,18.68807792663574
267,2176798102,100.53647613525391,39.55147933959961,-65.46800994873047,-6.49588918685913,7.34858942031860,-1.89052391052246,-8.03148937225342,-33.49784088134766,20.23405456542969
268,2176814769,99.79602813720703,39.27101898193359,-66.27751922607422,-6.46093797683716,7.34008264541626,-1.89721488952637,-13.76214504241943,-34.14889907836914,21.89739990234375
269,2176831436,98.94868469238281,38.95534133911133,-67.09754943847656,-6.41518354415894,7.53349351882935,-1.78285276889801,-19.97524833679199,-34.76354598999023,23.62114715576172
270,2176848103,97.98448944091797,38.60564422607422,-67.92852783203125,-6.28204679489136,7.47952365875244,-1.89451158046722,-26.80105018615723,-35.53618240356445,25.19413566589355
271,2176864770,96.89530181884766,38.22708511352539,-68.77106475830078,-6.32062816619873,7.42916631698608,-1.68714857101440,-34.12546539306641,-36.51380157470703,26.37014579772949
272,2176881437,95.67978668212891,37.81763458251953,-69.62688446044922,-6.31250524520874,7.34585428237915,-1.80782938003540,-41.49286651611328,-37.69533538818359,27.57283210754395
273,2176898104,94.34597015380859,37.37668609619141,-70.49248504638672,-6.32057380676270,7.40210103988647,-1.88662302494049,-48.53706359863281,-38.86085128784180,28.67817878723145
274,2176914771,92.90911865234375,36.90038299560547,-71.36283111572266,-6.54215383529663,7.60940027236938,-1.63375127315521,-54.88644409179688,-39.91582870483398,29.88605690002441
275,2176931438,91.37974548339844,36.38489532470703,-72.23590087890625,-6.87111616134644,7.94121646881104,-1.35871112346649,-60.71113586425781,-41.02260971069336,31.21467781066895
276,2176948105,89.78154754638672,35.82249832153320,-73.09627532958984,-7.10573148727417,8.28227519989014,-0.94935423135757,-65.69200134277344,-41.54179763793945,32.90553665161133
277,2176964772,88.13435363769531,35.20839691162109,-73.93210601806641,-7.10722064971924,8.52163982391357,-0.50046497583389,-69.92457580566406,-41.65681457519531,34.84408187866211
278,2176981439,86.46839904785156,34.53891754150391,-74.73067474365234,-7.08174800872803,8.36241626739502,0.08389885723591,-72.78997802734375,-41.32941436767578,37.02722167968750
279,2176998106,84.82283020019531,33.80833053588867,-75.48022460937500,-6.94633483886719,7.78863525390625,0.39066299796104,-73.70959472656250,-40.59506607055664,39.64165115356445
280,2177014773,83.23199462890625,33.00268936157227,-76.16969299316406,-6.56525182723999,6.77611207962036,0.77754598855972,-72.90970611572266,-39.54023361206055,43.25117492675781
281,2177031440,81.73429107666016,32.11231994628906,-76.78554534912109,-6.15284156799316,6.50570487976074,1.13344049453735,-70.21664428710938,-38.02124404907227,47.66771316528320
282,2177048107,80.32731628417969,31.13316345214844,-77.32501220703125,-5.67133092880249,5.84284019470215,0.83627897500992,-67.68666076660156,-36.53652191162109,52.52429580688477
283,2177064774,79.00313568115234,30.06673812866211,-77.79366302490234,-5.86672210693359,5.98327255249023,0.97799009084702,-65.37804412841797,-35.43700790405273,57.40692901611328
284,2177081441,77.71708679199219,28.91967773437500,-78.19770812988281,-5.57750558853149,6.02340555191040,1.23760604858398,-65.47075653076172,-34.69784927368164,61.96437072753906
285,2177098108,76.44805145263672,27.70404434204102,-78.52748870849609,-4.73426246643066,5.31795406341553,1.69116675853729,-67.00377655029297,-33.42249679565430,66.02506256103516
286,2177114775,75.15896606445312,26.43483161926270,-78.76811218261719,-3.40113043785095,5.60619115829468,2.46200680732727,-71.01833343505859,-31.27665519714355,69.51065826416016
287,2177131442,73.78108215332031,25.12684631347656,-78.91221618652344,-2.80917859077454,5.51833724975586,3.02780127525330,-79.15043640136719,-28.64201736450195,72.36860656738281
288,2177148109,72.20088958740234,23.80505180358887,-78.97067260742188,-2.95300483703613,6.64861536026001,3.38813185691833,-93.59077453613281,-26.36872291564941,73.74697113037109
289,2177164776,70.25632476806641,22.49339103698730,-78.95320892333984,-2.59850525856018,7.13671207427979,3.17955970764160,-117.30851745605469,-24.52313423156738,73.66396331787109
290,2177181443,67.85602569580078,21.21036338806152,-78.86692810058594,-2.40703773498535,7.34259176254272,3.70442295074463,-146.15986633300781,-23.13394355773926,72.45155334472656
291,2177198110,65.07460021972656,19.97096443176270,-78.69639587402344,-2.45877814292908,7.03997707366943,3.55291461944580,-170.69572448730469,-21.00467681884766,70.83818817138672
292,2177214777,62.20477294921875,18.79784965515137,-78.42128753662109,-2.55935907363892,6.40080690383911,4.42915105819702,-177.87626647949219,-17.38592338562012,68.81572723388672
293,2177231444,59.58237075805664,17.71874237060547,-78.04314422607422,-2.39804053306580,6.33482742309570,5.51419973373413,-164.65419006347656,-12.74403285980225,65.88322448730469
294,2177248111,57.43453598022461,16.75104331970215,-77.57373046875000,-2.50230598449707,6.72141170501709,5.94055843353271,-137.41232299804688,-7.45394706726074,62.39469909667969
295,2177264778,55.73171997070312,15.90252113342285,-77.02532958984375,-2.50222444534302,7.30823278427124,6.26654958724976,-111.60437774658203,-1.73706102371216,58.71554565429688
296,2177281445,54.33509445190430,15.15984439849854,-76.41658020019531,-2.07534146308899,8.07590103149414,6.71714305877686,-93.75801086425781,3.25143766403198,55.51435089111328
297,2177298112,53.21647644042969,14.50880241394043,-75.75375366210938,-1.59773433208466,8.20888614654541,6.65586853027344,-77.47360229492188,7.88744544982910,53.05710983276367
298,2177314779,52.38054275512695,13.92890930175781,-75.04808807373047,-1.34886574745178,8.35396766662598,6.68877267837524,-60.72412490844727,11.61674404144287,51.34856796264648
299,2177331446,51.75674819946289,13.39753532409668,-74.31352233886719,-1.55356061458588,8.77762794494629,6.84130620956421,-48.00797271728516,14.15348243713379,50.28900527954102
300,2177348113,51.24683761596680,12.89267635345459,-73.54978942871094,-1.73097145557404,8.70493316650391,6.60911035537720,-41.18090438842773,16.04433631896973,50.29382324218750
301,2177364780,50.80733871459961,12.40160751342773,-72.74105072021484,-1.43773186206818,8.51265144348145,6.80105829238892,-37.16246414184570,18.26091384887695,51.49180603027344
302,2177381447,50.46808242797852,11.91428089141846,-71.86741638183594,-1.47661602497101,8.34957695007324,6.94379425048828,-31.55934715270996,21.06262397766113,53.90824127197266
303,2177398114,50.30892181396484,11.42295742034912,-70.92131805419922,-1.23266553878784,8.11011505126953,6.76769638061523,-21.19377136230469,24.02470016479492,56.95175552368164
304,2177414781,50.38902282714844,10.92039299011230,-69.91126251220703,-0.81731760501862,8.20362949371338,6.37312412261963,-7.09663820266724,26.53404808044434,59.94932937622070
305,2177431448,50.77393341064453,10.40195465087891,-68.84003448486328,-0.64667546749115,8.15678691864014,6.25766897201538,11.04208278656006,29.04556083679199,62.92332458496094
306,2177448115,51.42514419555664,9.86858272552490,-67.70899963378906,-0.67305135726929,8.34601783752441,6.32851934432983,26.97070884704590,31.89821052551270,65.63529205322266
307,2177464782,52.26684570312500,9.32336330413818,-66.51771545410156,-0.84691900014877,8.07826328277588,6.31392955780029,38.42455291748047,35.22184753417969,68.03678894042969
308,2177481449,53.18073272705078,8.76783180236816,-65.27047729492188,-1.12630069255829,8.39694595336914,6.12282943725586,42.91033554077148,38.63245391845703,70.05077362060547
309,2177498116,54.16077423095703,8.20430946350098,-63.97390365600586,-1.07571327686310,8.07868576049805,5.30416297912598,47.16516876220703,41.96978759765625,71.58519744873047
310,2177514783,55.26591873168945,7.63812875747681,-62.63415527343750,-0.88250350952148,8.34189033508301,5.03774785995483,55.07387924194336,45.38016510009766,72.48263549804688
311,2177531450,56.53687286376953,7.07116794586182,-61.25994873046875,-0.83006119728088,8.42170429229736,4.93456029891968,65.54424285888672,48.65666198730469,72.76986694335938
312,2177548117,58.02252578735352,6.50761079788208,-59.85441589355469,-0.75992000102997,8.34780883789062,4.47470140457153,79.01013183593750,52.19024276733398,72.46801757812500
313,2177564784,59.72082519531250,5.95167636871338,-58.42315673828125,-0.80047482252121,8.71303367614746,4.48095083236694,92.41925811767578,55.84521484375000,71.43499755859375
314,2177581451,61.65506744384766,5.40368938446045,-56.97013854980469,-1.42092871665955,8.87995243072510,3.94883394241333,107.26808166503906,59.55909347534180,69.88862609863281
315,2177598118,63.97905731201172,4.86366939544678,-55.48703002929688,-1.96222591400146,8.72179603576660,3.49394321441650,131.31245422363281,64.04351043701172,68.05929565429688
316,2177614785,66.83155059814453,4.33440637588501,-53.96987915039062,-1.81657326221466,9.42852497100830,3.12757444381714,163.68353271484375,69.28437805175781,65.39131164550781
317,2177631452,70.13800048828125,3.80800676345825,-52.43378448486328,-0.80213105678558,9.78071308135986,2.24874377250671,191.66835021972656,73.93742370605469,61.85834503173828
318,2177648119,73.54143524169922,3.27470493316650,-50.91752243041992,-0.95109683275223,10.76432895660400,1.88285207748413,198.40898132324219,76.29224395751953,57.46105575561523
319,2177664786,76.74035644531250,2.72092175483704,-49.45363998413086,-0.95061534643173,10.50795459747314,1.12094223499298,187.15989685058594,76.23686981201172,53.36401367187500
320,2177681453,79.50020599365234,2.13760399818420,-48.06055831909180,-0.63673663139343,11.09954261779785,1.36245107650757,161.86289978027344,74.48456573486328,50.19295883178711
321,2177698120,81.59109497070312,1.52739226818085,-46.74896240234375,-0.41169956326485,12.28802585601807,1.95109796524048,122.75284576416016,71.53281402587891,47.78572463989258
322,2177714787,82.86925506591797,0.90869742631912,-45.51845550537109,-0.08319960534573,12.60923004150391,2.07083225250244,74.94578552246094,68.07013702392578,45.50713348388672
323,2177731454,83.54624938964844,0.29296520352364,-44.35351562500000,-0.41253700852394,11.72488212585449,2.42936706542969,39.71994400024414,64.98394012451172,43.69560623168945
324,2177748121,84.03070068359375,-0.31673461198807,-43.22903823852539,0.14232128858566,10.79903316497803,1.61789560317993,28.92307090759277,63.06755828857422,42.41370773315430
325,2177764788,84.45375061035156,-0.91068351268768,-42.13426589965820,0.40332537889481,12.48887157440186,1.05939078330994,25.93553352355957,61.72429656982422,40.79159545898438
326,2177781455,84.80992126464844,-1.46346402168274,-41.08758163452148,0.91139048337936,13.42007446289062,0.16136589646339,22.52273941040039,59.35923004150391,37.63927078247070
327,2177798122,85.52156066894531,-1.96290040016174,-40.09864425659180,1.53713953495026,11.80807685852051,-0.46153953671455,44.31937408447266,56.52385711669922,33.59871673583984
328,2177814789,86.92430877685547,-2.42452716827393,-39.16878890991211,1.64122176170349,11.61837577819824,0.11938826739788,86.14012908935547,53.75493240356445,30.04378318786621
329,2177831456,88.82439422607422,-2.88520169258118,-38.30575561523438,1.32267177104950,9.54170322418213,-0.81074321269989,116.24140930175781,50.61343002319336,28.26727867126465
330,2177848123,90.67278289794922,-3.37386560440063,-37.53498458862305,0.75990295410156,9.90367984771729,-0.75556391477585,113.26314544677734,45.98801422119141,28.24403762817383
331,2177864790,92.10450744628906,-3.90161371231079,-36.86141967773438,-0.22168791294098,10.20511817932129,-0.36155077815056,88.30245971679688,41.02287292480469,29.39863777160645
332,2177881457,93.25183868408203,-4.46755743026733,-36.27241516113281,-0.44407537579536,10.28285789489746,-0.26659011840820,71.25486755371094,36.72642898559570,30.99916648864746
333,2177898124,94.36860656738281,-5.07127332687378,-35.75850296020508,-0.06450608372688,10.05833148956299,-0.87995231151581,69.40961456298828,32.99862289428711,32.83493423461914
334,2177914791,95.50790405273438,-5.70036458969116,-35.31602859497070,0.54173576831818,10.35183620452881,-1.31745839118958,70.68971252441406,29.51113700866699,34.07043838500977
335,2177931458,96.66003417968750,-6.33313941955566,-34.92621231079102,1.58722150325775,9.61019611358643,-1.34613454341888,71.41944122314453,27.08009147644043,34.03080368041992
336,2177948125,97.92792510986328,-6.95169210433960,-34.57765960693359,2.08244252204895,8.72430801391602,-1.35027718544006,78.33214569091797,25.24289512634277,32.91635131835938
337,2177964792,99.45723724365234,-7.55025768280029,-34.25487899780273,1.83929109573364,8.10635089874268,-1.68237245082855,94.04051208496094,24.34016418457031,31.33469963073730
338,2177981459,101.18627166748047,-8.13189125061035,-33.96126556396484,1.70101451873779,7.88169002532959,-1.75098526477814,105.98267364501953,23.34038734436035,29.93937301635742
339,2177998126,102.87991333007812,-8.69133472442627,-33.70698547363281,2.36350560188293,8.70313072204590,-2.00130128860474,103.68705749511719,21.67082405090332,28.41434288024902
340,2178014793,104.36630249023438,-9.21071052551270,-33.50100326538086,2.98527359962463,9.43339347839355,-2.23640489578247,90.94452667236328,19.10991859436035,26.13791084289551
341,2178031460,105.62605285644531,-9.67830085754395,-33.34483337402344,3.41119241714478,9.22995948791504,-2.23992753028870,76.96199035644531,16.08624649047852,23.42868804931641
342,2178048127,106.78067779541016,-10.09577083587646,-33.23190307617188,3.51174688339233,9.04859161376953,-2.46569275856018,70.28309631347656,13.29341793060303,20.90352249145508
343,2178064794,107.98207092285156,-10.46333408355713,-33.14683151245117,3.38458752632141,8.25935745239258,-2.39501643180847,72.83815765380859,11.26619243621826,18.25071334838867
344,2178081461,109.38317871093750,-10.78626060485840,-33.07630538940430,3.49687695503235,7.51643133163452,-2.56759119033813,84.69246673583984,10.02562713623047,15.71954441070557
345,2178098128,110.86135101318359,-11.06073856353760,-33.01447296142578,3.63384509086609,7.78427219390869,-2.88138771057129,89.23999786376953,8.95460033416748,12.89921092987061
346,2178114795,112.25878906250000,-11.28737735748291,-32.96104049682617,3.67721414566040,7.94157028198242,-2.94746875762939,84.31431579589844,7.77954435348511,10.17398357391357
347,2178131462,113.54175567626953,-11.46563625335693,-32.91926956176758,3.32708072662354,8.16252517700195,-3.70765304565430,77.31935882568359,6.27729415893555,7.57040405273438
348,2178148129,114.74745178222656,-11.59554958343506,-32.90018081665039,2.93402004241943,8.18455314636230,-4.04148006439209,72.41756439208984,4.05492448806763,5.32435178756714
349,2178164796,115.93112182617188,-11.67511177062988,-32.90160751342773,2.65827178955078,8.22525405883789,-3.86566781997681,70.85018920898438,1.80193650722504,3.01884293556213
350,2178181463,117.08760070800781,-11.69798278808594,-32.90932083129883,2.64501070976257,8.03888702392578,-3.94540309906006,69.14058685302734,0.03716465085745,0.09898193180561
351,2178198130,118.20470428466797,-11.66535663604736,-32.91736221313477,2.37298583984375,7.84538936614990,-4.23119592666626,66.77603149414062,-1.50084459781647,-2.84795284271240
352,2178214797,119.27084350585938,-11.58055019378662,-32.92628479003906,2.23174452781677,8.40686607360840,-4.42424201965332,63.70687484741211,-3.08817386627197,-5.53915214538574
353,2178231464,120.28932952880859,-11.44910049438477,-32.94474792480469,2.16866898536682,8.67334651947021,-4.40166711807251,60.73656845092773,-5.04614591598511,-7.63398456573486
354,2178248131,121.26904296875000,-11.26599884033203,-32.97601699829102,2.21048760414124,8.90369033813477,-4.58105659484863,58.26584625244141,-7.39257574081421,-9.82124137878418
355,2178264798,122.19841003417969,-11.02444648742676,-33.01691055297852,2.23333287239075,8.35293292999268,-4.51427841186523,55.14371109008789,-9.86579799652100,-12.38119888305664
356,2178281465,123.00049591064453,-10.71497917175293,-33.06319808959961,2.09322762489319,7.36118316650391,-4.46988105773926,47.45873641967773,-12.49952888488770,-15.49103164672852
357,2178298132,123.59236907958984,-10.33012962341309,-33.11078262329102,2.21050190925598,6.71480178833008,-4.47693681716919,34.85301971435547,-15.22366237640381,-19.07716941833496
358,2178314799,123.88923645019531,-9.86330509185791,-33.16264343261719,2.56690263748169,5.82538700103760,-4.13137722015381,17.12669181823730,-18.30984115600586,-22.90700721740723
359,2178331466,123.75285339355469,-9.31633281707764,-33.23246002197266,2.65995454788208,6.56060266494751,-4.19391107559204,-9.02160549163818,-21.91044616699219,-26.28495025634766
360,2178348133,123.06120300292969,-8.67819881439209,-33.33401489257812,2.23707509040833,8.37660121917725,-4.72032070159912,-42.58898925781250,-26.31678009033203,-29.97527503967285
361,2178364800,121.85621643066406,-7.95111894607544,-33.49449157714844,1.69629907608032,9.21572494506836,-5.47362041473389,-73.82376098632812,-31.66371536254883,-33.02643585205078
362,2178381467,120.35337066650391,-7.15427637100220,-33.73027038574219,1.69237685203552,9.14540863037109,-5.06963157653809,-92.16005706787109,-36.91302871704102,-35.02473068237305
363,2178398134,118.82965087890625,-6.31853580474854,-34.02416610717773,1.52057588100433,8.62008953094482,-4.22427797317505,-93.61981964111328,-40.19050979614258,-36.29222488403320
364,2178414801,117.35986328125000,-5.47947835922241,-34.34235382080078,1.16896724700928,8.83477020263672,-3.23630523681641,-90.27582550048828,-40.65482711791992,-36.80929183959961
365,2178431468,115.86177062988281,-4.67088413238525,-34.67193222045898,0.63287836313248,8.18038082122803,-3.76750922203064,-91.75320434570312,-39.53478622436523,-35.89430999755859
366,2178448135,114.30319976806641,-3.91322922706604,-35.01007843017578,0.25907555222511,9.36615943908691,-3.91354203224182,-95.15325927734375,-37.77768707275391,-33.93774032592773
367,2178464802,112.65132141113281,-3.21479439735413,-35.34764480590820,0.09366612881422,9.65622520446777,-3.10087656974792,-100.48965454101562,-35.41072845458984,-31.72475051879883
368,2178481469,110.92006683349609,-2.57806420326233,-35.67420959472656,-0.28682368993759,10.27117538452148,-3.18959593772888,-104.97893524169922,-32.51605606079102,-29.55236434936523
369,2178498136,109.10430145263672,-2.00355434417725,-35.98161697387695,-0.55184817314148,10.55482387542725,-2.82835054397583,-109.79125976562500,-29.27002143859863,-27.41921043395996
370,2178514803,107.13365936279297,-1.48780965805054,-36.26528167724609,-0.78473526239395,10.32312297821045,-2.85284209251404,-118.86125183105469,-25.93955230712891,-25.45284652709961
371,2178531470,104.92661285400391,-1.02467870712280,-36.51834869384766,-0.74005848169327,10.27969264984131,-2.74386596679688,-132.85894775390625,-22.40098190307617,-23.84331512451172
372,2178548137,102.42678833007812,-0.60501062870026,-36.73908996582031,-0.91656613349915,10.08833217620850,-2.45620989799500,-150.27807617187500,-18.94721221923828,-22.65988540649414
373,2178564804,99.55800628662109,-0.22342629730701,-36.92512512207031,-0.95316135883331,10.17936515808105,-2.13722848892212,-172.31040954589844,-15.43362045288086,-21.66777801513672
374,2178581471,96.31874847412109,0.13607969880104,-37.07853698730469,-1.14883530139923,10.67857551574707,-1.62652719020844,-194.46441650390625,-12.19800376892090,-21.40877151489258
375,2178598138,92.76491546630859,0.47713854908943,-37.20225906372070,-0.88825392723083,10.82110786437988,-0.99053227901459,-213.29388427734375,-9.10718154907227,-21.12244796752930
376,2178614805,88.94011688232422,0.80200487375259,-37.30020904541016,-0.78991067409515,10.56424713134766,-1.03424048423767,-229.52593994140625,-6.23729133605957,-20.70896339416504
377,2178631472,85.00520324707031,1.10800766944885,-37.36973953247070,-1.09909594058990,10.75599002838135,0.02797493338585,-236.13471984863281,-3.25548648834229,-19.85781288146973
378,2178648139,80.99370574951172,1.37251782417297,-37.41649246215820,-1.05285716056824,14.32633781433105,0.45699012279510,-240.74108886718750,-0.89754450321198,-17.38895225524902
379,2178664806,76.66836547851562,1.56537687778473,-37.45819091796875,-0.18047516047955,11.30310249328613,1.95642733573914,-259.57687377929688,-0.24278299510479,-13.12482547760010
380,2178681473,72.10790252685547,1.67765057086945,-37.49256134033203,0.20371644198895,10.41193580627441,2.57459735870361,-273.68936157226562,-0.19124294817448,-8.32728195190430
381,2178698140,67.70628356933594,1.73768723011017,-37.50439453125000,-0.27957391738892,6.45514011383057,2.02174973487854,-264.19818115234375,0.56797337532043,-4.90795469284058
382,2178714807,63.44576644897461,1.75888097286224,-37.50424194335938,-1.21249961853027,7.72044801712036,2.12725687026978,-255.75488281250000,0.54539448022842,-2.42798423767090
383,2178731474,59.07326126098633,1.72126770019531,-37.50026702880859,-1.00277769565582,10.32297420501709,4.09044456481934,-262.48855590820312,-0.85814422369003,0.83026438951492
384,2178748141,54.50823593139648,1.61044454574585,-37.49422454833984,-0.58615988492966,10.31824207305908,4.31906604766846,-274.04968261718750,-3.30784726142883,4.51259660720825
385,2178764808,49.87023925781250,1.43712770938873,-37.47913360595703,-0.43876755237579,8.08934116363525,5.29708528518677,-278.45339965820312,-5.62184190750122,7.53008127212524
386,2178781475,45.27911376953125,1.22728252410889,-37.45572662353516,-0.46506959199905,6.06247520446777,4.68166303634644,-275.65332031250000,-7.41030120849609,9.01086425781250
387,2178798142,40.74452972412109,0.99752962589264,-37.42306137084961,-0.56765764951706,7.04043006896973,7.53252601623535,-272.27050781250000,-8.68759250640869,9.61745643615723
388,2178814809,36.37001037597656,0.77757000923157,-37.37409210205078,-0.44834899902344,7.08528757095337,8.88717365264893,-262.67285156250000,-8.42642974853516,9.31575870513916
389,2178831476,32.30428695678711,0.58659791946411,-37.30467987060547,-0.45042651891708,5.65209436416626,9.00335121154785,-244.14834594726562,-7.04383563995361,8.70439434051514
390,2178848143,28.53804016113281,0.43428894877434,-37.21428298950195,-0.35053211450577,4.24418306350708,7.70029354095459,-226.17617797851562,-5.06061363220215,8.11594676971436
391,2178864810,24.98027038574219,0.30662658810616,-37.10865020751953,-0.08230604231358,2.80932807922363,5.39648914337158,-213.65892028808594,-3.90880751609802,7.92957925796509
392,2178881477,21.68350219726562,0.20932015776634,-36.98262023925781,-0.05487260967493,3.16149950027466,8.28726196289062,-197.99211120605469,-2.28508424758911,8.08702850341797
393,2178898144,18.83312988281250,0.15689092874527,-36.83504867553711,-0.19488407671452,2.61924433708191,9.88631153106689,-171.19883728027344,0.19894801080227,8.23545646667480
394,2178914811,16.54335594177246,0.15086156129837,-36.66323089599609,-0.01939256116748,2.16579675674438,10.52320861816406,-137.55775451660156,2.87227892875671,8.77655506134033
395,2178931478,14.68356990814209,0.17177867889404,-36.47265243530273,0.02069647610188,1.85789120197296,9.65922355651855,-111.75597381591797,4.37194204330444,9.52339649200439
396,2178948145,13.14908885955811,0.19769465923309,-36.27066040039062,0.17578320205212,1.57398200035095,7.82325887680054,-92.23935699462891,4.51020717620850,10.24286174774170
397,2178964812,11.96360015869141,0.21877981722355,-36.06073760986328,0.03458398580551,1.41529059410095,8.94002723693848,-71.30352783203125,4.06099987030029,10.87678050994873
398,2178981479,11.19122505187988,0.23466590046883,-35.84361648559570,0.11664373427629,1.10065388679504,9.60102367401123,-46.51961135864258,3.63678336143494,11.43041992187500
399,2178998146,10.87490272521973,0.24988497793674,-35.62357330322266,0.09032905101776,1.02850794792175,9.67550182342529,-19.15555381774902,3.51134729385376,11.64421463012695
400,2179014813,10.99310684204102,0.27599453926086,-35.39956665039062,0.14057724177837,1.15244758129120,9.48911476135254,6.91546535491943,4.17550659179688,11.75866317749023
401,2179031480,11.55077457427979,0.33295121788979,-35.17071914672852,0.07285048812628,1.13688445091248,9.33642768859863,33.27579498291016,6.12378740310669,11.65975379943848
402,2179048147,12.60403347015381,0.43882068991661,-34.93279647827148,0.06425900012255,1.16661655902863,9.55367088317871,62.99305343627930,9.28611755371094,11.48557662963867
403,2179064814,14.15709972381592,0.60130524635315,-34.68467712402344,0.07287068665028,1.49853110313416,9.19709587097168,92.94658660888672,13.01668739318848,11.08080577850342
404,2179081481,16.11970520019531,0.81340813636780,-34.42603302001953,-0.09339884668589,1.99832415580750,8.51259040832520,117.46678161621094,16.42225837707520,10.50682353973389
405,2179098148,18.41088104248047,1.06084620952606,-34.15856170654297,-0.17503261566162,2.62912893295288,8.42533874511719,137.11233520507812,19.02315711975098,9.76182174682617
406,2179114815,21.00428962707520,1.32451593875885,-33.88200378417969,-0.36631724238396,3.28769278526306,9.75370121002197,155.16380310058594,20.56812095642090,9.12137603759766
407,2179131482,23.85564231872559,1.58268654346466,-33.59319305419922,-0.41901838779449,3.89185500144958,9.97544002532959,170.54681396484375,21.00448417663574,8.93726158142090
408,2179148149,26.87650680541992,1.81151199340820,-33.29006958007812,-0.38499683141708,4.33248567581177,9.19969367980957,180.62084960937500,20.26618003845215,9.37541389465332
409,2179164816,29.96733283996582,2.00158452987671,-32.97769927978516,-0.36747097969055,4.48632717132568,7.79111719131470,184.73507690429688,19.01235389709473,9.86933612823486
410,2179181483,33.08607482910156,2.15342259407043,-32.65489196777344,-0.50923275947571,5.10759782791138,7.18753480911255,186.33081054687500,17.94728279113770,10.55162143707275
411,2179198150,36.20677947998047,2.25838446617126,-32.32331085205078,-0.54836016893387,6.07182264328003,7.80450677871704,186.38081359863281,16.53962516784668,11.58907508850098
412,2179214817,39.27593231201172,2.30955648422241,-31.98630905151367,-0.40270340442657,6.61820077896118,7.75947570800781,183.24607849121094,14.84326457977295,12.90534305572510
413,2179231484,42.24979782104492,2.30958104133606,-31.64748001098633,-0.38262560963631,6.66933345794678,7.20100259780884,177.51548767089844,13.30625057220459,14.18699073791504
414,2179248151,45.13583755493164,2.26896905899048,-31.31250381469727,-0.29017099738121,6.56593847274780,6.24627304077148,172.25932312011719,12.14885902404785,15.00322246551514
415,2179264818,47.94459915161133,2.20659995079041,-30.97896957397461,-0.32446533441544,7.93286466598511,6.64263248443604,167.64320373535156,11.97396755218506,15.26692581176758
416,2179281485,50.67435836791992,2.14445114135742,-30.64919090270996,-0.30769076943398,9.46972370147705,6.98271417617798,162.93075561523438,12.58852863311768,14.50958919525146
417,2179298152,53.30764007568359,2.10006165504456,-30.32557868957520,-0.29177504777908,9.04174232482910,6.57422256469727,157.16949462890625,13.67083168029785,12.83508110046387
418,2179314819,55.83137130737305,2.08544993400574,-30.00835800170898,-0.23213957250118,8.18277740478516,5.32965755462646,150.62130737304688,15.00688552856445,10.52379989624023
419,2179331486,58.25060653686523,2.09757494926453,-29.69571685791016,-0.02917919680476,6.93286943435669,4.35857343673706,144.35906982421875,16.13683319091797,8.36858749389648
420,2179348153,60.54526138305664,2.13954734802246,-29.39118576049805,-0.07685658335686,8.66778755187988,4.65443897247314,136.89434814453125,17.00544929504395,5.90439271926880
421,2179364820,62.63715362548828,2.21598315238953,-29.09841918945312,-0.22392015159130,9.72561836242676,4.63080358505249,124.73425292968750,17.62571716308594,3.09211874008179
422,2179381487,64.47932434082031,2.33081936836243,-28.82129859924316,-0.26098328828812,9.64104461669922,4.36940002441406,109.75876617431641,17.94329071044922,-0.00029455887852
423,2179398154,66.12303924560547,2.47608852386475,-28.55736351013184,-0.19200298190117,8.61844253540039,3.71736335754395,97.84387207031250,18.01321792602539,-2.53725028038025
424,2179414821,67.58826446533203,2.63851928710938,-28.30545234680176,-0.22213290631771,9.02911376953125,3.56436109542847,87.12606048583984,17.70631027221680,-4.25863313674927
425,2179431488,68.78253173828125,2.79689645767212,-28.06962203979492,-0.45469573140144,11.06666088104248,4.10494804382324,70.86975860595703,16.64235496520996,-4.80348873138428
426,2179448155,69.54719543457031,2.93093633651733,-27.86000251770020,-0.39028596878052,11.10818958282471,3.77311372756958,45.13586425781250,14.58684253692627,-4.28238153457642
427,2179464822,69.94129180908203,3.03450155258179,-27.67279434204102,-0.35629245638847,9.70583820343018,3.32726073265076,22.94482421875000,12.65908241271973,-3.18196964263916
428,2179481489,70.14186096191406,3.11319923400879,-27.49930763244629,-0.31969365477562,8.09789276123047,2.59726333618164,11.36036968231201,11.36560630798340,-2.12514519691467
429,2179498156,70.15868377685547,3.16854977607727,-27.34009552001953,-0.54317528009415,9.63256645202637,3.06157064437866,0.36635777354240,10.08462524414062,-1.12024843692780
430,2179514823,69.85589599609375,3.19968605041504,-27.20166778564453,-0.52624648809433,10.83051586151123,3.53646612167358,-18.74831771850586,8.41705608367920,-0.15496985614300
431,2179531490,69.18023681640625,3.21140503883362,-27.08907318115234,-0.57992106676102,10.60217475891113,3.51998448371887,-41.03629684448242,6.55093622207642,0.46726813912392
432,2179548157,68.28700256347656,3.22064280509949,-26.99607658386230,-0.51945334672928,9.08615398406982,3.40113425254822,-54.03015518188477,5.38173246383667,0.27157425880432
433,2179564824,67.27871704101562,3.23623514175415,-26.91358375549316,-0.53357231616974,8.54670715332031,3.08388876914978,-60.89653396606445,4.91751098632812,-0.22974254190922
434,2179581491,66.12712860107422,3.25964236259460,-26.84250640869141,-0.55830442905426,9.62182331085205,3.88964533805847,-69.45974731445312,4.45690393447876,-0.83613449335098
435,2179598158,64.75840759277344,3.28023791313171,-26.78284645080566,-0.60487312078476,9.94642925262451,4.28836154937744,-82.45367431640625,3.75915694236755,-0.86652404069901
436,2179614825,63.18932342529297,3.28654313087463,-26.73149871826172,-0.55566513538361,9.46571350097656,4.38345289230347,-94.44583892822266,2.92722034454346,-0.21692079305649
437,2179631492,61.49478912353516,3.26845359802246,-26.68290138244629,-0.45623645186424,8.55041217803955,4.12319040298462,-101.96316528320312,2.07399392127991,1.08803534507751
438,2179648159,59.69416809082031,3.22066497802734,-26.63709259033203,-0.51922017335892,8.56993865966797,4.46125793457031,-108.31956481933594,0.98701989650726,2.62295794487000
439,2179664826,57.75696182250977,3.13616943359375,-26.59724617004395,-0.48083204030991,8.76901817321777,5.01664590835571,-116.49337005615234,-0.58448421955109,4.35214567184448
440,2179681493,55.68215942382812,3.01225781440735,-26.56324386596680,-0.46745565533638,8.56154727935791,5.30106258392334,-124.72569274902344,-2.36336255073547,6.11743688583374
441,2179698160,53.52394866943359,2.86014890670776,-26.53528785705566,-0.41323477029800,8.10144901275635,5.41239309310913,-129.70994567871094,-3.90593218803406,7.19539356231689
442,2179714827,51.34633636474609,2.69713187217712,-26.50749778747559,-0.39219242334366,7.84525728225708,5.74479484558105,-130.86828613281250,-4.62353801727295,7.55799007415771
443,2179731494,49.18099594116211,2.53735852241516,-26.47718429565430,-0.39159822463989,7.75545883178711,6.28345918655396,-130.13545227050781,-4.70696067810059,7.32575368881226
444,2179748161,47.06269836425781,2.39425277709961,-26.43978500366211,-0.33837807178497,7.37645864486694,6.51558351516724,-127.32643127441406,-4.03547382354736,6.68597078323364
445,2179764828,45.02812576293945,2.27175688743591,-26.39476776123047,-0.31158703565598,6.75512170791626,6.46914625167847,-122.31652069091797,-3.12716794013977,5.96343135833740
446,2179781495,43.10213470458984,2.17021393775940,-26.34076881408691,-0.30365198850632,6.38246583938599,6.48507547378540,-115.81779479980469,-2.09142732620239,5.36601877212524
447,2179798162,41.28886795043945,2.08166766166687,-26.27632713317871,-0.31483098864555,6.45385885238647,7.13120841979980,-109.07141876220703,-1.30449032783508,5.23632669448853
448,2179814829,39.58304977416992,1.99564301967621,-26.20311546325684,-0.37420675158501,6.44635343551636,7.65560197830200,-102.63831329345703,-1.04139339923859,5.49868726730347
449,2179831496,37.97724533081055,1.90179657936096,-26.12413787841797,-0.36472913622856,6.09003353118896,7.70435190200806,-96.64067077636719,-1.38137674331665,6.03271293640137
450,2179848163,36.47834014892578,1.79750370979309,-26.04115295410156,-0.33852604031563,5.61221647262573,7.43036508560181,-90.22525787353516,-1.92893528938293,6.56412887573242
451,2179864830,35.10071182250977,1.68346905708313,-25.95553588867188,-0.34517845511436,5.38129472732544,7.53268194198608,-82.94386291503906,-2.50327968597412,6.98532342910767
452,2179881497,33.87129974365234,1.56412029266357,-25.86812591552734,-0.34885931015015,5.36289262771606,8.10909271240234,-74.04312133789062,-2.88907933235168,7.19750738143921
453,2179898164,32.83042144775391,1.44717645645142,-25.77468872070312,-0.30365008115768,5.18126535415649,8.39236927032471,-62.72889709472656,-2.73338055610657,7.36447143554688
454,2179914831,32.00558471679688,1.34396684169769,-25.67344856262207,-0.27187529206276,4.86786937713623,8.24619293212891,-49.76536178588867,-1.92563116550446,7.27429676055908
455,2179931498,31.41002845764160,1.26369690895081,-25.56266784667969,-0.20743650197983,4.59469318389893,7.91206979751587,-36.00904846191406,-0.55819302797318,7.01320600509644
456,2179948165,31.05074119567871,1.21174490451813,-25.44107437133789,-0.20095215737820,4.57380485534668,8.08319473266602,-21.83793640136719,1.16272246837616,6.68292188644409
457,2179964832,30.94090461730957,1.18694329261780,-25.30542182922363,-0.21501454710960,4.65689039230347,8.38615894317627,-6.88169908523560,2.96175718307495,6.57404518127441
458,2179981499,31.07307243347168,1.18300449848175,-25.15623092651367,-0.23461428284645,4.72247695922852,8.43361473083496,7.62654829025269,4.45292949676514,6.62300395965576
459,2179998166,31.41217613220215,1.19044172763824,-24.99498748779297,-0.26798707246780,4.74700450897217,8.23667430877686,20.02855110168457,5.44284915924072,6.87032461166382
460,2180014833,31.92315292358398,1.20069694519043,-24.82780265808105,-0.29233631491661,4.84103155136108,8.11164283752441,30.33411026000977,5.83118677139282,7.04269742965698
461,2180031500,32.58269500732422,1.21001827716827,-24.65415191650391,-0.31963938474655,5.04269456863403,8.22007560729980,39.23849487304688,6.07310724258423,7.34272336959839
462,2180048167,33.37112808227539,1.21254563331604,-24.47549629211426,-0.32832416892052,5.19449281692505,8.21257305145264,46.96637725830078,5.99950933456421,7.73757553100586
463,2180064834,34.27614593505859,1.21237230300903,-24.29446029663086,-0.35818243026733,5.30954790115356,7.99635267257690,53.95866775512695,6.07474327087402,7.85826492309570
464,2180081501,35.28348159790039,1.21490466594696,-24.10947608947754,-0.36896204948425,5.42914819717407,7.84756660461426,60.09292602539062,6.48871660232544,7.85650396347046
465,2180098168,36.38602447509766,1.22279751300812,-23.91713523864746,-0.36547964811325,5.62597846984863,7.84356260299683,65.79665374755859,7.17177724838257,7.90592527389526
466,2180114835,37.56727218627930,1.24149680137634,-23.71927261352539,-0.40347087383270,5.83781957626343,7.80073451995850,70.51011657714844,8.06543731689453,7.63464879989624
467,2180131502,38.80719375610352,1.26729428768158,-23.51508331298828,-0.40833649039268,6.00880432128906,7.62597990036011,74.01645660400391,8.81746006011963,7.49932861328125
468,2180148169,40.08135223388672,1.29730212688446,-23.30857276916504,-0.42007181048393,6.20184564590454,7.40107917785645,76.06370544433594,9.28486824035645,7.24868011474609
469,2180164836,41.36131286621094,1.32216143608093,-23.09878921508789,-0.44977062940598,6.44897937774658,7.30952644348145,76.40013885498047,9.36103725433350,7.38906097412109
470,2180181503,42.61656951904297,1.34023654460907,-22.88813781738281,-0.42584466934204,6.69904470443726,7.26413011550903,74.91186523437500,9.27808856964111,7.49298667907715
471,2180198170,43.82895660400391,1.34833788871765,-22.67792701721191,-0.43832471966743,6.83910846710205,7.09580469131470,72.33795928955078,9.00529479980469,7.68026113510132
472,2180214837,44.98987579345703,1.34523081779480,-22.46754646301270,-0.41952022910118,6.98309040069580,6.87706756591797,69.24913024902344,8.71146488189697,7.97052860260010
473,2180231504,46.09782028198242,1.33764255046844,-22.25619316101074,-0.40560293197632,7.16366720199585,6.72486257553101,66.06993103027344,8.74089622497559,8.02877521514893
474,2180248171,47.14773178100586,1.33332431316376,-22.04646873474121,-0.38806459307671,7.29740667343140,6.70268678665161,62.58994293212891,8.97444820404053,7.65387582778931
475,2180264838,48.13566970825195,1.33363795280457,-21.83913993835449,-0.37783381342888,7.42812633514404,6.55597639083862,58.87627792358398,9.20922756195068,7.19075489044189
476,2180281505,49.05912017822266,1.34206283092499,-21.63261222839355,-0.36479070782661,7.45382404327393,6.35054969787598,55.00658035278320,9.63109779357910,6.63889932632446
477,2180298172,49.91357803344727,1.35816705226898,-21.42973518371582,-0.36929237842560,7.53682422637939,6.20310020446777,50.86897277832031,9.88233184814453,5.99671983718872
478,2180314839,50.69234085083008,1.38318157196045,-21.22715187072754,-0.36359405517578,7.74474954605103,6.15665960311890,46.32338714599609,10.30919456481934,5.43254899978638
479,2180331506,51.38087081909180,1.41287136077881,-21.02770996093750,-0.39828446507454,7.91037797927856,6.11855268478394,40.90665435791016,10.42102241516113,4.96302318572998
480,2180348173,51.96559143066406,1.44296383857727,-20.82993316650391,-0.36688762903214,7.95348644256592,6.01325702667236,34.67520141601562,10.42490386962891,4.76719903945923
481,2180364840,52.44389343261719,1.47245812416077,-20.63468933105469,-0.37317553162575,8.00550746917725,5.88884544372559,28.28577041625977,10.33532142639160,4.60595941543579
482,2180381507,52.81124877929688,1.50043106079102,-20.44284439086914,-0.35716512799263,8.07106685638428,5.85079908370972,21.62989997863770,10.15771675109863,4.47760200500488
483,2180398174,53.06048965454102,1.52750861644745,-20.25602340698242,-0.36925330758095,8.15231513977051,5.89207744598389,14.54174137115479,9.91546726226807,4.28517580032349
484,2180414841,53.19074249267578,1.55732297897339,-20.07442665100098,-0.35255625844002,8.14336585998535,5.85728979110718,7.40608882904053,9.77920913696289,3.93322253227234
485,2180431508,53.20827102661133,1.59138906002045,-19.89903259277344,-0.36075475811958,8.08439445495605,5.80779266357422,0.64608705043793,9.64184761047363,3.49502730369568
486,2180448175,53.12306594848633,1.63080143928528,-19.73035049438477,-0.34286856651306,8.06274700164795,5.79903316497803,-5.51317405700684,9.50822544097900,3.00276374816895
487,2180464842,52.93619155883789,1.67525422573090,-19.56835365295410,-0.35416588187218,8.09918308258057,5.85050535202026,-11.61055469512939,9.35928535461426,2.54375314712524
488,2180481509,52.64871215820312,1.72391021251678,-19.41237831115723,-0.35394573211670,8.09628295898438,5.91783857345581,-17.64417266845703,9.20666503906250,2.16243219375610
489,2180498176,52.26700973510742,1.77173614501953,-19.26308631896973,-0.36360028386116,8.02329730987549,5.96922731399536,-23.29452896118164,8.84086227416992,2.01423168182373
490,2180514843,51.79854965209961,1.81536328792572,-19.12030220031738,-0.34545356035233,7.96502876281738,5.97234582901001,-28.49367713928223,8.35378837585449,2.03785514831543
491,2180531510,51.25327682495117,1.85578441619873,-18.98343086242676,-0.36769580841064,7.92485475540161,6.09072923660278,-33.09809112548828,7.92739343643188,2.04277467727661
492,2180548177,50.64041519165039,1.89179766178131,-18.85246849060059,-0.35426712036133,7.82784748077393,6.19660568237305,-37.14811325073242,7.45383262634277,2.10668063163757
493,2180564844,49.97531890869141,1.92296802997589,-18.72513198852539,-0.37311077117920,7.71425199508667,6.29277801513672,-40.28048324584961,7.06275510787964,2.27417731285095
494,2180581511,49.27545547485352,1.95304989814758,-18.60419845581055,-0.34115299582481,7.60278177261353,6.35261249542236,-42.35739135742188,6.68809461593628,2.16141819953918
495,2180598178,48.55826950073242,1.98536586761475,-18.48676300048828,-0.33949217200279,7.50896930694580,6.43378400802612,-43.39232635498047,6.57682275772095,2.00546240806580
496,2180614845,47.83342742919922,2.01862168312073,-18.37199592590332,-0.34952926635742,7.43135356903076,6.54273223876953,-43.85152435302734,6.45411872863770,1.94013059139252
497,2180631512,47.11151123046875,2.05144762992859,-18.25985145568848,-0.33619999885559,7.35152339935303,6.64315128326416,-43.67331695556641,6.28265190124512,1.93473887443542
498,2180648179,46.39826202392578,2.08296465873718,-18.15073394775391,-0.33105733990669,7.24308490753174,6.72141551971436,-43.15086746215820,6.05666255950928,1.94673180580139
499,2180664846,45.70318222045898,2.11357736587524,-18.04414749145508,-0.32121327519417,7.12538528442383,6.81776285171509,-42.05731964111328,5.87210702896118,1.95595169067383
500,2180681513,45.03074645996094,2.14128255844116,-17.94048118591309,-0.33552920818329,7.06616544723511,6.93390941619873,-40.69755554199219,5.58626556396484,2.02657842636108
501,2180698180,44.38772201538086,2.16372179985046,-17.83918762207031,-0.31554734706879,6.97980070114136,6.98246574401855,-38.92918395996094,5.22629308700562,2.21350622177124
502,2180714847,43.78693008422852,2.18571734428406,-17.74091720581055,-0.32497781515121,6.86961221694946,7.02714157104492,-36.39091491699219,5.04484844207764,2.15883445739746
503,2180731514,43.23818588256836,2.20957469940186,-17.64520645141602,-0.30193361639977,6.79446029663086,7.06249141693115,-33.26486587524414,4.98666524887085,2.02141976356506
504,2180748181,42.75191116333008,2.23550868034363,-17.55028343200684,-0.29413023591042,6.69873952865601,7.15328025817871,-29.51676559448242,5.01642227172852,1.94719219207764
505,2180764848,42.33240127563477,2.26336240768433,-17.45694923400879,-0.32278475165367,6.64780139923096,7.24374961853027,-25.50869560241699,5.01402425765991,1.83922028541565
506,2180781515,41.98533248901367,2.29398393630981,-17.36449432373047,-0.31716486811638,6.58455514907837,7.27227830886841,-21.16452217102051,5.08115100860596,1.72260403633118
507,2180798182,41.70835494995117,2.32532691955566,-17.27260398864746,-0.33912459015846,6.53237962722778,7.30030441284180,-16.95952415466309,5.07520008087158,1.69576716423035
508,2180814849,41.49983596801758,2.35504889488220,-17.18389511108398,-0.30481576919556,6.52272653579712,7.32710981369019,-12.84740829467773,4.86423921585083,1.63993096351624
509,2180831516,41.35603713989258,2.38328123092651,-17.09512138366699,-0.29559585452080,6.51511192321777,7.33760595321655,-8.96644020080566,4.79065227508545,1.71725511550903
510,2180848183,41.27412033081055,2.40881609916687,-17.00892257690430,-0.33021214604378,6.50398588180542,7.35318088531494,-5.24884891510010,4.56120634078979,1.71651840209961
511,2180864850,41.25405883789062,2.43019938468933,-16.92390823364258,-0.32500863075256,6.52129554748535,7.34362030029297,-1.53726136684418,4.32583808898926,1.83255684375763
512,2180881517,41.29422378540039,2.45086359977722,-16.83998107910156,-0.30708798766136,6.52467489242554,7.35886716842651,2.07719016075134,4.25026178359985,1.81042110919952
513,2180898184,41.39312744140625,2.47045516967773,-16.75661468505859,-0.30974900722504,6.56100845336914,7.36027956008911,5.60092115402222,4.18464136123657,1.82320189476013
514,2180914851,41.54662704467773,2.49101853370667,-16.67549324035645,-0.32899343967438,6.60749483108521,7.36008930206299,8.88029003143311,4.14452648162842,1.67470586299896
515,2180931518,41.74864959716797,2.51076841354370,-16.59375953674316,-0.32498043775558,6.63128566741943,7.30572319030762,11.78960132598877,4.14130020141602,1.71972084045410
516,2180948185,41.99143600463867,2.53129911422729,-16.51378822326660,-0.32303267717361,6.67009258270264,7.27725887298584,14.23723506927490,4.11664962768555,1.59489774703979
517,2180964852,42.26834106445312,2.54948472976685,-16.43255043029785,-0.32846039533615,6.73651790618896,7.24839735031128,16.28019905090332,4.07531118392944,1.72575342655182
518,2180981519,42.56709671020508,2.56510090827942,-16.34964942932129,-0.32473301887512,6.79938650131226,7.20724439620972,17.58460235595703,4.04265499114990,1.88150429725647
519,2180998186,42.87675857543945,2.57697343826294,-16.26924705505371,-0.35979241132736,6.82822847366333,7.16367864608765,18.24316215515137,3.79358482360840,1.90418481826782
520,2181014853,43.18873977661133,2.58540797233582,-16.19023132324219,-0.33573016524315,6.87300252914429,7.14281606674194,18.38561820983887,3.60165619850159,1.96213388442993
521,2181031520,43.49609756469727,2.58968758583069,-16.11186027526855,-0.36162212491035,6.95416450500488,7.10217142105103,18.10769844055176,3.40991210937500,2.08500409126282
522,2181048187,43.79393386840820,2.59017658233643,-16.03342056274414,-0.35837465524673,6.98736190795898,7.07502889633179,17.53599166870117,3.26459193229675,2.22649526596069
523,2181064854,44.07436752319336,2.58788537979126,-15.95390510559082,-0.39258968830109,7.01181173324585,7.04949712753296,16.48768615722656,3.20589971542358,2.37128353118896
524,2181081521,44.33549880981445,2.58241605758667,-15.87357139587402,-0.39209455251694,7.06846141815186,6.97641944885254,15.32846927642822,3.11998748779297,2.52426147460938
525,2181098188,44.57127380371094,2.57240581512451,-15.79357147216797,-0.42961636185646,7.11702632904053,6.96701240539551,13.80889225006104,2.92781543731689,2.68787550926208
526,2181114855,44.77264022827148,2.55405092239380,-15.71360301971436,-0.42099440097809,7.16762733459473,6.93064165115356,11.74259757995605,2.58482241630554,3.02811431884766
527,2181131522,44.93497085571289,2.52911710739136,-15.63444805145264,-0.45440614223480,7.18460941314697,6.91987085342407,9.40429496765137,2.28309106826782,3.26309728622437
528,2181148189,45.05554199218750,2.49537014961243,-15.55398845672607,-0.44608411192894,7.17854404449463,6.88400268554688,6.89721298217773,1.97486102581024,3.68717265129089
529,2181164856,45.13180160522461,2.45146775245667,-15.47422027587891,-0.47739380598068,7.20541095733643,6.87497234344482,4.24295520782471,1.52400028705597,4.08611488342285
530,2181181523,45.16593933105469,2.39817810058594,-15.39410209655762,-0.46851098537445,7.18675565719604,6.88236427307129,1.71752357482910,1.14662933349609,4.50004863739014
531,2181198190,45.16083526611328,2.33803915977478,-15.31353664398193,-0.48004370927811,7.17334890365601,6.84117746353149,-0.63269764184952,0.87665224075317,4.81048107147217
532,2181214857,45.12397384643555,2.27169394493103,-15.22949123382568,-0.46892651915550,7.14687013626099,6.84138917922974,-2.54322576522827,0.75857770442963,5.22193622589111
533,2181231524,45.06127929687500,2.20140767097473,-15.14425945281982,-0.46120721101761,7.11904478073120,6.84218406677246,-4.08975362777710,0.63647574186325,5.44121408462524
534,2181248191,44.97871017456055,2.12530565261841,-15.05579853057861,-0.44193479418755,7.08835172653198,6.84705543518066,-5.28280544281006,0.51891338825226,5.82733821868896
535,2181264858,44.88134384155273,2.04606437683105,-14.96490859985352,-0.43592274188995,7.05679559707642,6.84535598754883,-6.17115783691406,0.47693425416946,6.06507635116577
536,2181281525,44.77556610107422,1.96309351921082,-14.87166976928711,-0.42057615518570,7.02514600753784,6.85770893096924,-6.67203950881958,0.40514177083969,6.32474946975708
537,2181298192,44.66102981567383,1.87736034393311,-14.77622127532959,-0.41984364390373,6.97050333023071,6.88705587387085,-7.19357919692993,0.36571106314659,6.53664541244507
538,2181314859,44.54561233520508,1.79049909114838,-14.67931938171387,-0.38202521204948,6.93103790283203,6.88227224349976,-7.24144792556763,0.36261186003685,6.64825201034546
539,2181331526,44.43697738647461,1.70346164703369,-14.57819175720215,-0.33257889747620,6.92392492294312,6.85711050033569,-6.83359193801880,0.51690286397934,6.83751726150513
540,2181348193,44.34426498413086,1.61844205856323,-14.47299480438232,-0.34070879220963,6.86798048019409,6.89012098312378,-5.87649583816528,0.76169621944427,6.93063163757324
541,2181364860,44.27095413208008,1.53702437877655,-14.36265850067139,-0.32400766015053,6.84015417098999,6.90692424774170,-4.71218061447144,1.11948001384735,7.00091171264648
542,2181381527,44.22024536132812,1.46307110786438,-14.24954891204834,-0.28941583633423,6.81154394149780,6.89316701889038,-3.34958457946777,1.54693055152893,6.81026411056519
543,2181398194,44.19940948486328,1.39813244342804,-14.13222408294678,-0.28841131925583,6.82483243942261,6.90011835098267,-1.55780947208405,2.10594058036804,6.61590242385864
544,2181414861,44.21002578735352,1.34249889850616,-14.01140880584717,-0.25751271843910,6.80746078491211,6.86022472381592,0.33386799693108,2.65093421936035,6.37687873840332
545,2181431528,44.25497817993164,1.29564118385315,-13.88705158233643,-0.24475513398647,6.81646871566772,6.82723426818848,2.39446759223938,3.18050837516785,6.16150712966919
546,2181448195,44.33028793334961,1.25941884517670,-13.75927066802979,-0.23162394762039,6.79963636398315,6.82551813125610,4.21522951126099,3.78716444969177,5.85994958877563
547,2181464862,44.43409729003906,1.23162353038788,-13.62726020812988,-0.25589486956596,6.82802629470825,6.83579063415527,5.92553138732910,4.33741569519043,5.68199300765991
548,2181481529,44.56100845336914,1.21453869342804,-13.49165821075439,-0.29695495963097,6.85780286788940,6.83557558059692,7.31044960021973,4.96039438247681,5.37713813781738
549,2181498196,44.70414352416992,1.20342266559601,-13.35403919219971,-0.32586485147476,6.84982061386108,6.84518098831177,8.28196620941162,5.31315803527832,5.19878435134888
550,2181514863,44.85348510742188,1.19776511192322,-13.21437263488770,-0.33320927619934,6.88906049728394,6.82094860076904,8.65358734130859,5.64943456649780,5.04352760314941
551,2181531530,45.00108718872070,1.19303429126740,-13.07342243194580,-0.35174295306206,6.92157030105591,6.81449842453003,8.54781341552734,5.75796127319336,5.04509639739990
552,2181548197,45.13681030273438,1.18678259849548,-12.93211364746094,-0.37637600302696,6.96693229675293,6.81290674209595,7.83710002899170,5.72330808639526,5.11054944992065
553,2181564864,45.25097274780273,1.17845916748047,-12.79297161102295,-0.38906440138817,7.00205564498901,6.78984260559082,6.54650592803955,5.55647230148315,5.09589195251465
554,2181581531,45.33910751342773,1.16400372982025,-12.65202140808105,-0.39219167828560,7.03559446334839,6.78911638259888,4.98337459564209,5.38407230377197,5.42483520507812
555,2181598198,45.39608764648438,1.14235389232635,-12.51265335083008,-0.39209130406380,7.03963947296143,6.79399156570435,3.11928796768188,5.02063417434692,5.65899229049683
556,2181614865,45.41850662231445,1.11469995975494,-12.37213039398193,-0.39745867252350,7.07444810867310,6.80796194076538,1.04800152778625,4.82136678695679,5.96132516860962
557,2181631532,45.40572738647461,1.07737708091736,-12.23362731933594,-0.38719126582146,7.05562400817871,6.80830907821655,-1.05702984333038,4.32813692092896,6.29062080383301
558,2181648199,45.36188507080078,1.03569483757019,-12.09690093994141,-0.37718033790588,7.04807710647583,6.77759218215942,-2.91342544555664,4.06312227249146,6.40412282943726
559,2181664866,45.29003143310547,0.98984873294830,-11.96088695526123,-0.36607760190964,7.05271673202515,6.80896472930908,-4.58841991424561,3.84956431388855,6.55777454376221
560,2181681533,45.19449615478516,0.94005078077316,-11.82553482055664,-0.34347733855247,7.03124856948853,6.86103248596191,-6.00181961059570,3.64347147941589,6.70649576187134
561,2181698200,45.07841491699219,0.88595181703568,-11.68899440765381,-0.32205176353455,7.05678129196167,6.81232929229736,-7.22649145126343,3.49594283103943,6.94590997695923
562,2181714867,44.95344543457031,0.82927101850510,-11.55112171173096,-0.27187854051590,7.03816747665405,6.78251028060913,-7.75404310226440,3.42409276962280,7.11964845657349
563,2181731534,44.82564926147461,0.77279460430145,-11.41269302368164,-0.27261251211166,6.98256349563599,6.79356622695923,-7.91723442077637,3.43816661834717,7.14295530319214
564,2181748201,44.70087051391602,0.71627503633499,-11.27692031860352,-0.23442421853542,6.96175384521484,6.87671852111816,-7.72583770751953,3.30619120597839,7.04034566879272
565,2181764868,44.57994079589844,0.66336411237717,-11.14084529876709,-0.22572626173496,6.97620439529419,6.92084407806396,-7.48719120025635,3.45544958114624,6.90969419479370
566,2181781535,44.47143936157227,0.61635118722916,-11.00642776489258,-0.19883537292480,6.95147562026978,6.92059469223022,-6.73338222503662,3.62113761901855,6.59837150573730
567,2181798202,44.38289260864258,0.58021867275238,-10.87191486358643,-0.18236885964870,6.87964677810669,6.94101142883301,-5.53173589706421,4.07815742492676,6.15231275558472
568,2181814869,44.31512832641602,0.55461728572845,-10.73752307891846,-0.16812703013420,6.85332775115967,6.96643066406250,-4.27787876129150,4.51462316513062,5.71128749847412
569,2181831536,44.27022171020508,0.54205322265625,-10.60363292694092,-0.14470599591732,6.89818620681763,6.96646070480347,-2.90531921386719,5.04639434814453,5.14872932434082
570,2181848203,44.24771499633789,0.54185342788696,-10.47118473052979,-0.17417706549168,6.88434886932373,7.01003170013428,-1.55715620517731,5.51291656494141,4.57132911682129
571,2181864870,44.24464797973633,0.55251342058182,-10.33998394012451,-0.19190606474876,6.85466623306274,7.08161592483521,-0.39229053258896,5.92539644241333,4.06526088714600
572,2181881537,44.25228118896484,0.57081246376038,-10.20870971679688,-0.18538901209831,6.86705684661865,7.12552309036255,0.24798856675625,6.25520372390747,3.74751567840576
573,2181898204,44.26470947265625,0.59398370981216,-10.07908630371094,-0.15423975884914,6.90854549407959,7.10224056243896,0.53551042079926,6.39865493774414,3.47344088554382
574,2181914871,44.28715515136719,0.62245726585388,-9.95317268371582,-0.15358501672745,6.96307611465454,7.03015041351318,1.13617932796478,6.47060060501099,3.09062051773071
575,2181931538,44.32015991210938,0.65390366315842,-9.83151054382324,-0.14578145742416,6.96635198593140,7.00876140594482,1.76711630821228,6.42268610000610,2.77963781356812
576,2181948205,44.35873031616211,0.68787246942520,-9.71509456634521,-0.13059452176094,6.71056079864502,6.95730352401733,2.10176563262939,6.31236600875854,2.44571876525879
577,2181964872,44.51036071777344,0.73011845350266,-9.59878635406494,-0.29830831289291,6.97434854507446,7.26236057281494,8.88159179687500,6.66912746429443,2.08265924453735
578,2181981539,44.76993179321289,0.77325916290283,-9.48367023468018,-0.00916699878871,6.86144638061523,6.92317342758179,15.35275459289551,6.66692829132080,1.97060453891754
579,2181998206,45.13692855834961,0.82298773527145,-9.36454582214355,-0.29380136728287,6.81670379638672,6.83309173583984,21.79249763488770,7.13206768035889,1.82348012924194
580,2182014873,45.58848953247070,0.86933732032776,-9.24642658233643,-0.09507993608713,6.89991712570190,6.92800807952881,26.85836219787598,6.96851062774658,1.87492489814758
581,2182031540,46.11252975463867,0.91476649045944,-9.12837028503418,-0.27368330955505,7.20355415344238,7.00177669525146,31.20502090454102,6.95238113403320,1.85269498825073
582,2182048207,46.68324279785156,0.95451360940933,-9.01344203948975,-0.15718634426594,7.10205984115601,6.73174762725830,34.00163650512695,6.60789299011230,1.90252578258514
583,2182064874,47.25834274291992,0.99435484409332,-8.90277385711670,-0.21671620011330,7.33184385299683,6.83996057510376,34.26581192016602,6.45544004440308,1.65784013271332
584,2182081541,47.83351135253906,1.03561031818390,-8.79547977447510,-0.14137713611126,7.30894088745117,6.73447084426880,34.26831817626953,6.38965225219727,1.39318299293518
585,2182098208,48.41878128051758,1.08264780044556,-8.69185161590576,-0.15235128998756,7.33629274368286,6.55023717880249,34.87413406372070,6.48217964172363,0.92276549339294
586,2182114875,49.01764297485352,1.13563156127930,-8.58799266815186,-0.16070365905762,7.47106409072876,6.53933382034302,35.68313217163086,6.74834394454956,0.59520983695984
587,2182131542,49.62231445312500,1.19526731967926,-8.48410511016846,-0.14316928386688,7.58658409118652,6.51314210891724,36.02845764160156,7.02777385711670,0.22261384129524
588,2182148209,50.23310470581055,1.25729548931122,-8.38277721405029,-0.14339733123779,7.57756567001343,6.39165019989014,36.39123153686523,7.01701688766479,-0.06141313910484
589,2182164876,50.84918594360352,1.32147300243378,-8.28365135192871,-0.17089533805847,7.74346113204956,6.21062374114990,36.70532226562500,7.00592803955078,-0.32081988453865
590,2182181543,51.43843841552734,1.38214325904846,-8.18703079223633,-0.16130150854588,7.93336200714111,6.20006227493286,35.09246063232422,6.76547098159790,-0.32649290561676
591,2182198210,51.95307159423828,1.43802607059479,-8.09412479400635,-0.17208199203014,8.04969501495361,6.17766952514648,30.61605262756348,6.41989660263062,-0.30470889806747
592,2182214877,52.38392639160156,1.48887479305267,-8.00632953643799,-0.20739455521107,7.98119497299194,6.08081817626953,25.58915901184082,5.99808549880981,-0.30843526124954
593,2182231544,52.77061462402344,1.53578090667725,-7.91979742050171,-0.21593125164509,7.91879940032959,6.01500701904297,22.93771743774414,5.80086565017700,-0.20878872275352
594,2182248211,53.17613220214844,1.58413279056549,-7.82742166519165,-0.17535606026649,7.78117465972900,6.08856678009033,24.05359077453613,6.13758468627930,-0.10842519253492
595,2182264878,53.65631484985352,1.63178133964539,-7.72564744949341,-0.26088488101959,8.00014877319336,5.87677335739136,28.51552009582520,6.57309579849243,0.21291898190975
596,2182281545,54.15404510498047,1.67986738681793,-7.61961317062378,-0.25614994764328,8.16297054290771,5.79908180236816,29.55335044860840,6.80589246749878,0.28591552376747
597,2182298212,54.57320785522461,1.72393000125885,-7.52114057540894,-0.28853073716164,8.29302310943604,5.71146774291992,24.84987068176270,6.30807733535767,0.16348624229431
598,2182314879,54.86600112915039,1.75939810276031,-7.43395423889160,-0.26730504631996,8.33997344970703,5.69888067245483,17.28294754028320,5.46561670303345,0.15422706305981
599,2182331546,55.03530883789062,1.78221189975739,-7.36091375350952,-0.28626415133476,8.44371509552002,5.72704601287842,9.89612197875977,4.33980464935303,0.26559093594551
600,2182348213,55.11336135864258,1.79199147224426,-7.29872560501099,-0.28327897191048,8.37582302093506,5.62593936920166,4.43968009948730,3.36141133308411,0.52544456720352
601,2182364880,55.13237380981445,1.78803396224976,-7.24184894561768,-0.28687638044357,8.21925830841064,5.63682174682617,0.90740025043488,2.62966227531433,1.01535785198212
602,2182381547,55.12220382690430,1.77133846282959,-7.19087553024292,-0.32139205932617,8.11584472656250,5.66118574142456,-0.83227187395096,1.90108323097229,1.43990111351013
603,2182398214,55.08125686645508,1.74439132213593,-7.14326953887939,-0.20127843320370,8.33237075805664,5.52252197265625,-2.67243528366089,1.38428962230682,1.83023226261139
604,2182414881,54.98730087280273,1.71139264106750,-7.09719181060791,-0.28360241651535,8.27238559722900,5.68629074096680,-5.84796333312988,1.09852874279022,2.07783055305481
605,2182431548,54.83579635620117,1.67454314231873,-7.04588460922241,-0.18356116116047,8.25811481475830,5.53935337066650,-9.30726623535156,1.21427285671234,2.44909977912903
606,2182448215,54.60741043090820,1.63498270511627,-6.99268198013306,-0.24101562798023,8.28617095947266,5.61726188659668,-13.92392539978027,1.20264506340027,2.65168452262878
607,2182464882,54.28896713256836,1.58960115909576,-6.94084692001343,-0.19740226864815,8.33149623870850,5.68324041366577,-19.32234191894531,0.91381114721298,2.89327859878540
608,2182481549,53.88708114624023,1.53470778465271,-6.89269399642944,-0.26716035604477,8.24894618988037,5.73454189300537,-24.32082748413086,0.37561103701591,3.23263669013977
609,2182498216,53.42507171630859,1.46729421615601,-6.84976863861084,-0.18158899247646,8.02644920349121,5.77665567398071,-27.91670417785645,-0.35482650995255,3.65508961677551
610,2182514883,52.92198181152344,1.39150547981262,-6.80824613571167,-0.22709529101849,7.94749355316162,5.85716772079468,-30.37824630737305,-0.76323539018631,4.00363063812256
611,2182531550,52.39654159545898,1.31243550777435,-6.76758909225464,-0.17399571835995,7.94710493087769,5.85544633865356,-31.71348381042480,-0.96998834609985,4.12268590927124
612,2182548217,51.85035705566406,1.23442137241364,-6.72252321243286,-0.15284004807472,7.93978357315063,5.98113203048706,-32.96156692504883,-0.77036261558533,4.22622728347778
613,2182564884,51.27031707763672,1.16107487678528,-6.67651319503784,-0.19004353880882,7.82977294921875,5.98319149017334,-34.99112701416016,-0.60478883981705,4.03515768051147
614,2182581551,50.64451980590820,1.08976256847382,-6.62748336791992,-0.18478718400002,7.77744388580322,6.11265945434570,-37.73645019531250,-0.44067513942719,4.04817152023315
615,2182598218,49.97557830810547,1.01751208305359,-6.58002948760986,-0.19180119037628,7.70088243484497,6.22183084487915,-40.31985473632812,-0.60681319236755,4.02730035781860
616,2182614885,49.28352355957031,0.94287818670273,-6.53427219390869,-0.21326223015785,7.61382675170898,6.34073686599731,-41.70095062255859,-0.83939105272293,4.06337738037109
617,2182631552,48.59987258911133,0.86703968048096,-6.48759794235229,-0.22837629914284,7.39900207519531,6.37774944305420,-41.19445800781250,-0.90691274404526,4.14420461654663
618,2182648219,47.96277618408203,0.79288780689240,-6.43977260589600,-0.14435718953609,7.24850320816040,6.37476015090942,-38.40001296997070,-0.84796410799026,4.10564136505127
619,2182664886,47.37572860717773,0.72114729881287,-6.38876581192017,-0.15824900567532,7.23861932754517,6.44793272018433,-35.39476013183594,-0.66517764329910,4.11840581893921
620,2182681553,46.82730484008789,0.64746928215027,-6.33504581451416,-0.17930336296558,7.22662591934204,6.56087875366211,-33.07541275024414,-0.67727905511856,4.30900049209595
621,2182698220,46.31542968750000,0.57308518886566,-6.27549219131470,-0.17269222438335,7.18377780914307,6.62086820602417,-30.88228416442871,-0.50224113464355,4.57387399673462
622,2182714887,45.82643127441406,0.49725532531738,-6.21203565597534,-0.14454893767834,7.11389350891113,6.68210411071777,-29.50690269470215,-0.44361975789070,4.79605627059937
623,2182731554,45.35076522827148,0.42149606347084,-6.14507865905762,-0.14552737772465,7.06646013259888,6.73623323440552,-28.70569801330566,-0.34031695127487,4.93675327301025
624,2182748221,44.89407730102539,0.34558191895485,-6.07502746582031,-0.16677992045879,7.00314807891846,6.82740402221680,-27.56121635437012,-0.26441982388496,5.07250690460205
625,2182764888,44.46605682373047,0.27400410175323,-5.99978446960449,-0.13533525168896,6.93776464462280,6.85702562332153,-25.83791160583496,0.09012491255999,5.10886907577515
626,2182781555,44.07574462890625,0.20585595071316,-5.91820669174194,-0.14484970271587,6.80826568603516,6.89808368682861,-23.57130050659180,0.46030598878860,5.23972225189209
627,2182798222,43.73317718505859,0.14102563261986,-5.83127212524414,-0.18037599325180,6.74315214157104,6.96876335144043,-20.70267677307129,0.78416609764099,5.33670282363892
628,2182814889,43.44202041625977,0.08064086735249,-5.73988151550293,-0.13424953818321,6.73393487930298,6.97365236282349,-17.61253166198730,1.12558364868164,5.35085201263428
629,2182831556,43.18371200561523,0.02019494958222,-5.64612293243408,-0.14509297907352,6.79524517059326,7.00970888137817,-15.63676071166992,1.18878257274628,5.46331548690796
630,2182848223,42.91927719116211,-0.04220630601048,-5.55248403549194,-0.11944595724344,6.78133773803711,6.98450660705566,-15.99714469909668,1.06860768795013,5.54454708099365
631,2182864890,42.63151931762695,-0.10965939611197,-5.45823478698730,-0.15776017308235,6.72646856307983,7.05195283889771,-17.39095878601074,0.83779227733612,5.78241920471191
632,2182881557,42.34456253051758,-0.17611339688301,-5.36170053482056,-0.12585987150669,6.67116594314575,7.13201665878296,-17.33621025085449,0.94010233879089,5.84969091415405
633,2182898224,42.08513641357422,-0.23874011635780,-5.26000356674194,-0.14528420567513,6.67246913909912,7.13812446594238,-15.67809677124023,1.28413844108582,5.92910766601562
634,2182914891,41.83985519409180,-0.29761651158333,-5.15525150299072,-0.07915788888931,6.70963716506958,7.07997846603394,-14.82087039947510,1.54274368286133,5.92131471633911
635,2182931558,41.55833816528320,-0.35259294509888,-5.05293798446655,-0.10095814615488,6.66516780853271,7.07888126373291,-16.99131011962891,1.58733594417572,5.66443395614624
636,2182948225,41.21652984619141,-0.40734821557999,-4.95239591598511,-0.05853683128953,6.65511083602905,7.18391799926758,-20.60351562500000,1.48882377147675,5.58506917953491
637,2182964892,40.84139251708984,-0.45703831315041,-4.85267066955566,-0.05016057565808,6.58552885055542,7.28498697280884,-22.59890365600586,1.64485073089600,5.35887908935547
638,2182981559,40.49209213256836,-0.49883738160133,-4.74787092208862,-0.01110794208944,6.41383934020996,7.25133800506592,-21.04301261901855,2.15999937057495,5.29268121719360
639,2182998226,40.22140884399414,-0.53073459863663,-4.63281250000000,-0.03699242696166,6.21085166931152,7.24427652359009,-16.31541252136230,2.97690296173096,5.38827657699585
640,2183014893,40.05558013916016,-0.55278837680817,-4.50993490219116,0.01439917273819,6.15691089630127,7.28445863723755,-10.01617717742920,3.70504522323608,5.37846422195435
641,2183031560,39.99434661865234,-0.56667745113373,-4.38374519348145,-0.01171357929707,6.17048215866089,7.29446554183960,-3.73666882514954,4.19546318054199,5.22409486770630
642,2183048227,40.03799057006836,-0.57580846548080,-4.25457668304443,0.00460462691262,6.17969560623169,7.38688039779663,2.55943870544434,4.52760839462280,5.17709541320801
643,2183064894,40.17953109741211,-0.57827699184418,-4.12322235107422,-0.02773621119559,6.16248130798340,7.34665679931641,8.43585300445557,4.92692518234253,5.01361131668091
644,2183081561,40.40459823608398,-0.57304710149765,-3.98912668228149,-0.03599258139729,6.26312494277954,7.29127693176270,13.44945716857910,5.40532112121582,4.82437419891357
645,2183098228,40.68502807617188,-0.56236284971237,-3.84999060630798,-0.06202157959342,6.38808965682983,7.22714328765869,16.77193832397461,5.87614250183105,4.81831169128418
646,2183114895,40.96929168701172,-0.54626327753067,-3.70709753036499,-0.05468194186687,6.55147600173950,7.25076723098755,17.00309562683105,6.29847145080566,4.74794054031372
647,2183131562,41.20369338989258,-0.52845710515976,-3.56350278854370,-0.06962150335312,6.67835760116577,7.25736045837402,14.00847434997559,6.42795419692993,4.68263912200928
648,2183148229,41.36401367187500,-0.51274293661118,-3.42553377151489,-0.07684452831745,6.70871734619141,7.26327323913574,9.55732631683350,6.13143396377563,4.49053001403809
649,2183164896,41.45312118530273,-0.49699380993843,-3.29262590408325,-0.06747002899647,6.69286012649536,7.22711944580078,5.27813863754272,5.94301891326904,4.24852085113525
650,2183181563,41.49457550048828,-0.48195496201515,-3.16521835327148,-0.10183852165937,6.66548442840576,7.22687673568726,2.41513037681580,5.69785881042480,4.02323675155640
651,2183198230,41.50852203369141,-0.46292364597321,-3.03946018218994,-0.04116027429700,6.64404821395874,7.20438575744629,0.75897496938705,5.81424474716187,3.78753709793091
652,2183214897,41.49788284301758,-0.44088423252106,-2.91239595413208,-0.02029250934720,6.65723848342896,7.21291685104370,-0.71834671497345,6.00134468078613,3.72779488563538
653,2183231564,41.47019195556641,-0.41783130168915,-2.78386545181274,-0.03567543998361,6.61912012100220,7.25254392623901,-1.74275219440460,6.10300064086914,3.75539183616638
654,2183248231,41.43350601196289,-0.39402833580971,-2.65601110458374,-0.05724728479981,6.58209085464478,7.30042409896851,-2.28718280792236,6.10676050186157,3.69834685325623
655,2183264898,41.40288543701172,-0.36931976675987,-2.52952361106873,-0.06549363583326,6.53864526748657,7.27310943603516,-1.92633771896362,6.09041833877563,3.60621690750122
656,2183281565,41.38459014892578,-0.34149199724197,-2.40572714805603,-0.04372754320502,6.56697177886963,7.26868295669556,-1.19257235527039,6.12134647369385,3.36312723159790
657,2183298232,41.36494445800781,-0.30826318264008,-2.28783965110779,-0.06369665265083,6.60413551330566,7.25512266159058,-1.27854144573212,6.12823677062988,2.88547611236572
658,2183314899,41.32823562622070,-0.27079415321350,-2.17519235610962,-0.05635722726583,6.64071559906006,7.25611209869385,-2.30960679054260,6.10915565490723,2.48563623428345
659,2183331566,41.25397491455078,-0.22852113842964,-2.06728124618530,-0.03929119557142,6.70685243606567,7.30960321426392,-4.56858921051025,6.13512039184570,2.08781337738037
660,2183348233,41.12643432617188,-0.18500369787216,-1.96373593807220,-0.10014364868402,6.70983457565308,7.38674497604370,-7.77127408981323,6.01294231414795,1.85266959667206
661,2183364900,40.95287704467773,-0.14239619672298,-1.86342871189117,-0.05854906514287,6.69314861297607,7.41640138626099,-10.53886985778809,5.83501195907593,1.75801825523376
662,2183381567,40.76780319213867,-0.10067362338305,-1.76535439491272,-0.04418426007032,6.57909870147705,7.36329078674316,-11.23373603820801,5.69813108444214,1.70968067646027
663,2183398234,40.61632537841797,-0.05695364624262,-1.66806876659393,-0.01797419600189,6.43531179428101,7.36074781417847,-9.22308635711670,5.75040578842163,1.61323595046997
664,2183414901,40.53693771362305,-0.00717452773824,-1.57200264930725,-0.04577349871397,6.37050008773804,7.40065479278564,-4.90245771408081,5.97310066223145,1.33293640613556
665,2183431568,40.55925750732422,0.05206206068397,-1.47497940063477,-0.03625311702490,6.31270456314087,7.43388271331787,1.19391047954559,6.43941688537598,1.01086926460266
666,2183448235,40.68897247314453,0.11927838623524,-1.37635564804077,-0.03382512181997,6.30433416366577,7.43123006820679,7.63275289535522,6.86941766738892,0.76274639368057
667,2183464902,40.92655563354492,0.19437944889069,-1.27417886257172,-0.05180936306715,6.31014251708984,7.36538457870483,14.09644126892090,7.37174463272095,0.59356844425201
668,2183481569,41.24943161010742,0.27565917372704,-1.17068445682526,-0.08615165203810,6.42624521255493,7.39035844802856,19.20637130737305,7.71193695068359,0.37327361106873
669,2183498236,41.60657882690430,0.35773828625679,-1.06999075412750,-0.11576781421900,6.59030342102051,7.35466384887695,21.25511169433594,7.64479589462280,0.16861508786678
670,2183514903,41.94426345825195,0.43822449445724,-0.97369652986526,-0.12858875095844,6.75974225997925,7.35725402832031,20.08031272888184,7.40427255630493,-0.01136565301567
671,2183531570,42.23506546020508,0.51605224609375,-0.88580667972565,-0.14666725695133,6.78705406188965,7.33377361297607,17.26292991638184,6.95434284210205,-0.31900012493134
672,2183548237,42.46784210205078,0.59141552448273,-0.80145341157913,-0.12597902119160,6.84333038330078,7.31897830963135,13.77694225311279,6.70434713363647,-0.40909278392792
673,2183564904,42.63282394409180,0.66505044698715,-0.72506773471832,-0.11164470016956,6.89097404479980,7.24585342407227,9.70776844024658,6.30728387832642,-0.71448582410812
674,2183581571,42.71413040161133,0.73631817102432,-0.65369111299515,-0.12640771269798,6.92902326583862,7.27892780303955,4.68497943878174,6.00023031234741,-0.85141748189926
675,2183598238,42.71497344970703,0.80637794733047,-0.58934152126312,-0.12342430651188,6.90770149230957,7.25152921676636,-0.14297010004520,5.66168069839478,-1.11704671382904
676,2183614905,42.65375137329102,0.87575662136078,-0.53002756834030,-0.12787541747093,6.88736152648926,7.29414081573486,-3.86667895317078,5.42607593536377,-1.30875146389008
677,2183631572,42.56549072265625,0.94425272941589,-0.47626435756683,-0.10956724733114,6.77879428863525,7.30270433425903,-5.48865509033203,5.16241931915283,-1.51009297370911
678,2183648239,42.47914505004883,1.01504802703857,-0.42486280202866,-0.13913927972317,6.70760154724121,7.25364446640015,-5.37531232833862,5.16904687881470,-1.70076048374176
679,2183664906,42.39986038208008,1.08619534969330,-0.37680071592331,-0.13240841031075,6.69661712646484,7.26971721649170,-4.95094776153564,5.05039548873901,-1.85511481761932
