sep=,
DeviceTag:,Xsens DOT
FirmwareVersion:,2.2.1
AppVersion:,2023.6.0
StartTime: ,2023-12-12_15:45:17_000 CET
© Movella Technologies B. V. 2005-2023

PacketCounter,SampleTimeFine,Euler_X,Euler_Y,Euler_Z,Acc_X,Acc_Y,Acc_Z,Gyr_X,Gyr_Y,Gyr_Z
0,2172348013,-95.85946655273438,-42.76985168457031,-128.26695251464844,0.00000000000000,0.00000000000000,0.00000000000000,0.00000000000000,0.00000000000000,0.00000000000000
1,2172364680,-95.75676727294922,-42.72108840942383,-128.69308471679688,6.67440938949585,-7.19427347183228,-1.11020886898041,-8.61801910400391,17.11835479736328,5.38785028457642
2,2172381347,-95.89262390136719,-42.69799423217773,-128.84895324707031,6.95928668975830,-7.18119049072266,-0.90982460975647,-11.91714763641357,5.42631578445435,2.65393161773682
3,2172398014,-96.10552215576172,-42.73464965820312,-128.84443664550781,7.35423851013184,-7.23413372039795,-1.30932664871216,-10.01226329803467,-1.23941183090210,-1.62890410423279
4,2172414681,-96.25717163085938,-42.81401062011719,-128.97428894042969,7.39219474792480,-7.02105283737183,-1.43456482887268,-11.81581115722656,4.93407821655273,-3.53570747375488
5,2172431348,-96.32932281494141,-42.84007263183594,-129.18286132812500,7.29153347015381,-6.99940061569214,-1.12673068046570,-10.25637912750244,8.02452087402344,0.03788760304451
6,2172448015,-96.41938018798828,-42.85295104980469,-129.36676025390625,6.99633693695068,-7.29924774169922,-1.34219455718994,-10.32912063598633,6.85590314865112,0.71828937530518
7,2172464682,-96.53818511962891,-42.86022949218750,-129.57919311523438,6.95729446411133,-7.21129274368286,-1.37571203708649,-13.22024917602539,8.06420993804932,1.21183395385742
8,2172481349,-96.72302246093750,-42.78204727172852,-129.70559692382812,6.80824708938599,-7.22150230407715,-1.19280099868774,-13.66542434692383,3.71481180191040,5.89376258850098
9,2172498016,-96.97547149658203,-42.72930526733398,-129.76040649414062,7.02099227905273,-7.15600681304932,-1.33705270290375,-14.79662322998047,0.74674540758133,4.02169036865234
10,2172514683,-97.40190887451172,-42.61708068847656,-129.74838256835938,6.76887369155884,-6.89244699478149,-1.08723437786102,-22.51630973815918,-2.64409399032593,7.20909929275513
11,2172531350,-97.81143188476562,-42.55252456665039,-129.64891052246094,7.02938365936279,-6.94678258895874,-1.26185214519501,-17.95054244995117,-6.13778400421143,3.85472273826599
12,2172548017,-98.20722961425781,-42.54846191406250,-129.47911071777344,7.09210920333862,-7.18609714508057,-1.32247650623322,-14.28219509124756,-8.73578262329102,-0.20587508380413
13,2172564684,-98.63059997558594,-42.56740188598633,-129.20765686035156,7.06259012222290,-7.41982173919678,-1.58266103267670,-11.80480384826660,-12.97315406799316,-2.28077507019043
14,2172581351,-98.92909240722656,-42.60803604125977,-128.94981384277344,6.86027336120605,-7.33276844024658,-2.09052634239197,-4.86437988281250,-12.15555191040039,-3.54774522781372
15,2172598018,-99.04655456542969,-42.67553329467773,-128.83465576171875,6.76831293106079,-7.15303564071655,-2.16978120803833,0.21293765306473,-5.66026687622070,-4.19327402114868
16,2172614685,-99.06784057617188,-42.78691482543945,-128.80082702636719,6.89577388763428,-7.10729265213013,-2.01128911972046,2.68169546127319,-1.69260299205780,-6.23281383514404
17,2172631352,-99.01231384277344,-42.95003890991211,-128.90794372558594,7.13154602050781,-6.76752090454102,-1.57111012935638,1.54050827026367,4.92211580276489,-8.32411766052246
18,2172648019,-98.93461608886719,-43.09669113159180,-129.09460449218750,7.24282789230347,-6.50650072097778,-1.46959960460663,-0.39639508724213,8.19367885589600,-6.80968952178955
19,2172664686,-98.73750305175781,-43.22985458374023,-129.35386657714844,7.33854770660400,-6.65371084213257,-1.74550974369049,3.76421713829041,11.17133712768555,-5.54374313354492
20,2172681353,-98.55881500244141,-43.38773727416992,-129.70947265625000,7.16955232620239,-6.99861431121826,-1.58743965625763,-1.33685600757599,15.50716400146484,-6.41670417785645
21,2172698020,-98.36752319335938,-43.55829620361328,-130.07719421386719,7.24606513977051,-6.95714807510376,-1.72922098636627,-1.11834120750427,16.07731819152832,-7.15132856369019
22,2172714687,-98.13243103027344,-43.69025802612305,-130.49568176269531,7.26148605346680,-6.85785102844238,-1.88334381580353,-0.63919132947922,17.86222457885742,-4.61013793945312
23,2172731354,-97.91680908203125,-43.84971237182617,-130.93353271484375,7.06091451644897,-6.66760444641113,-1.62529933452606,-2.65070080757141,18.85274887084961,-6.20728588104248
24,2172748021,-97.80539703369141,-44.03863525390625,-131.28796386718750,6.94523954391479,-6.81265497207642,-1.57351863384247,-5.49272727966309,15.45528030395508,-8.51035499572754
25,2172764688,-97.85925292968750,-44.27593612670898,-131.58346557617188,6.93335247039795,-7.02475166320801,-1.63833677768707,-12.99954128265381,13.27852153778076,-11.74604129791260
26,2172781355,-97.93986511230469,-44.49327468872070,-131.86871337890625,7.05801868438721,-7.32833003997803,-1.82784402370453,-14.22303771972656,12.64663124084473,-10.60919475555420
27,2172798022,-97.95851898193359,-44.68625640869141,-132.20007324218750,7.17921686172485,-7.38691711425781,-1.99814021587372,-12.49274253845215,14.36261940002441,-8.88135814666748
28,2172814689,-97.89888000488281,-44.88153457641602,-132.59457397460938,7.25249624252319,-7.36053228378296,-1.98811864852905,-10.51105976104736,16.99814605712891,-8.65846347808838
29,2172831356,-97.79956817626953,-45.08684921264648,-133.00799560546875,7.18206071853638,-7.22174596786499,-1.84416747093201,-8.99027729034424,17.80618858337402,-9.17701911926270
30,2172848023,-97.66237640380859,-45.29653930664062,-133.39677429199219,7.06737327575684,-7.04523468017578,-1.63709115982056,-5.73548555374146,16.72724723815918,-9.62330722808838
31,2172864690,-97.49369812011719,-45.49617385864258,-133.70906066894531,6.89356899261475,-7.11616182327271,-1.54428315162659,-0.63825619220734,13.37034606933594,-9.50754451751709
32,2172881357,-97.39726257324219,-45.68355560302734,-133.90736389160156,6.98261356353760,-6.59098052978516,-1.31473851203918,-0.13514548540115,8.46076965332031,-9.43705654144287
33,2172898024,-97.43727111816406,-45.87438201904297,-134.00325012207031,7.31267356872559,-6.34902906417847,-1.22881841659546,-3.93839001655579,4.20339775085449,-10.20439815521240
34,2172914691,-97.59174346923828,-46.06840896606445,-134.08593750000000,7.55629110336304,-6.32671499252319,-1.15272629261017,-10.25327110290527,3.68926215171814,-10.45577812194824
35,2172931358,-97.80991363525391,-46.22699737548828,-134.20591735839844,7.79396533966064,-6.13101339340210,-1.24828410148621,-15.69699382781982,4.96374034881592,-8.12448596954346
36,2172948025,-97.95885467529297,-46.38255691528320,-134.34657287597656,7.71767282485962,-6.11675930023193,-1.53914487361908,-12.45564365386963,5.80291318893433,-7.80245399475098
37,2172964692,-98.12348175048828,-46.53453445434570,-134.47393798828125,7.43705892562866,-6.06563234329224,-1.73915576934814,-12.83824729919434,5.23304367065430,-7.64694690704346
38,2172981359,-98.26116180419922,-46.69295120239258,-134.60801696777344,7.38793992996216,-6.06341075897217,-1.72747015953064,-11.52790164947510,5.57133626937866,-7.97070360183716
39,2172998026,-98.44011688232422,-46.85602188110352,-134.72993469238281,7.38720035552979,-6.39579963684082,-1.67705309391022,-13.49180793762207,5.12922239303589,-8.29894351959229
40,2173014693,-98.65799713134766,-47.01306152343750,-134.86917114257812,7.50440835952759,-6.41893768310547,-1.59431397914886,-16.59018516540527,5.79030179977417,-7.81532812118530
41,2173031360,-98.89762878417969,-47.13986968994141,-134.95304870605469,7.53433036804199,-6.34437322616577,-1.73460912704468,-15.47828102111816,3.29924535751343,-6.33944416046143
42,2173048027,-99.15265655517578,-47.23629379272461,-134.97915649414062,7.22498321533203,-6.33739852905273,-1.93113505840302,-13.86535549163818,0.70481717586517,-4.88681745529175
43,2173064694,-99.41870117187500,-47.31320190429688,-134.98939514160156,7.20990991592407,-6.32007408142090,-1.82053983211517,-13.83088111877441,-0.09007993340492,-3.82508063316345
44,2173081361,-99.69023132324219,-47.38841629028320,-135.00212097167969,7.28938293457031,-6.20544290542603,-1.75962424278259,-14.26750087738037,0.01291521359235,-3.70372700691223
45,2173098028,-99.94782257080078,-47.45559692382812,-135.04048156738281,7.45399427413940,-6.30505132675171,-1.92372822761536,-14.56613349914551,0.97408372163773,-3.04262471199036
46,2173114695,-100.20101165771484,-47.49414443969727,-135.06079101562500,7.64723443984985,-6.42951774597168,-1.89152133464813,-13.50423908233643,-0.03353985026479,-1.46745479106903
47,2173131362,-100.50672912597656,-47.50240707397461,-135.05897521972656,7.25890207290649,-6.60598659515381,-1.71944761276245,-15.67617702484131,-1.23144686222076,0.16538774967194
48,2173148029,-100.66275787353516,-47.49947357177734,-135.24429321289062,7.15986299514771,-6.14845609664917,-1.88286745548248,-14.97288990020752,6.10400485992432,2.22103953361511
49,2173164696,-100.87135314941406,-47.47600555419922,-135.37718200683594,7.27421283721924,-5.86853885650635,-2.16216874122620,-15.80446052551270,3.78538775444031,3.05993342399597
50,2173181363,-101.08245849609375,-47.44540405273438,-135.49969482421875,7.19325447082520,-6.11229944229126,-2.06127619743347,-15.49412059783936,3.28232789039612,3.42078995704651
51,2173198030,-101.32404327392578,-47.41158676147461,-135.62062072753906,7.11967945098877,-6.32773065567017,-1.68554079532623,-17.24533081054688,3.17522907257080,3.61633110046387
52,2173214697,-101.57172393798828,-47.37487030029297,-135.74903869628906,7.05150842666626,-6.41943788528442,-1.97409379482269,-17.93855857849121,3.42268729209900,3.86970639228821
53,2173231364,-101.79447937011719,-47.32093811035156,-135.90850830078125,6.99209833145142,-6.48909378051758,-2.01647043228149,-17.81110382080078,4.44418621063232,5.15700101852417
54,2173248031,-101.97888183593750,-47.24879074096680,-136.09400939941406,7.00534915924072,-6.43296051025391,-1.94641363620758,-16.65018463134766,5.24950218200684,6.46713161468506
55,2173264698,-102.13597869873047,-47.16369628906250,-136.29252624511719,7.12477207183838,-6.35201644897461,-1.84601509571075,-15.57701969146729,5.59518289566040,7.35981082916260
56,2173281365,-102.26507568359375,-47.06740951538086,-136.48484802246094,7.14793014526367,-6.31829261779785,-1.92825984954834,-13.61100864410400,5.20796871185303,7.98198032379150
57,2173298032,-102.34981536865234,-46.96529006958008,-136.68492126464844,7.13954257965088,-6.26262760162354,-1.95402407646179,-11.27478408813477,5.44072437286377,8.41153049468994
58,2173314699,-102.42323303222656,-46.85701370239258,-136.90544128417969,7.16405630111694,-6.27128839492798,-1.90754759311676,-11.47253894805908,6.18216133117676,8.96242141723633
59,2173331366,-102.48192596435547,-46.73997497558594,-137.13745117187500,7.32076454162598,-6.26032018661499,-1.88526630401611,-11.07308101654053,6.53729391098022,9.59254646301270
60,2173348033,-102.48778533935547,-46.60659408569336,-137.35002136230469,7.25454187393188,-6.38124656677246,-2.09635806083679,-7.03872013092041,5.55942583084106,10.38912582397461
61,2173364700,-102.44170379638672,-46.46217727661133,-137.57191467285156,7.12579393386841,-6.48640918731689,-2.09511089324951,-4.29693031311035,5.81491279602051,11.11906337738037
62,2173381367,-102.38098144531250,-46.29697036743164,-137.80210876464844,7.06944704055786,-6.45791101455688,-2.07222342491150,-3.76198291778564,5.92166614532471,12.41349029541016
63,2173398034,-102.32627868652344,-46.11266326904297,-138.03895568847656,7.05097341537476,-6.38660001754761,-2.00878500938416,-4.37658643722534,5.98647975921631,13.59000015258789
64,2173414701,-102.31702423095703,-45.90232849121094,-138.24131774902344,7.07754707336426,-6.42730236053467,-1.90657210350037,-5.57873296737671,4.28691005706787,14.81482696533203
65,2173431368,-102.34099578857422,-45.66441345214844,-138.40493774414062,7.17228889465332,-6.45771026611328,-1.95948112010956,-5.87488031387329,2.38128542900085,16.09263420104980
66,2173448035,-102.33155059814453,-45.40668869018555,-138.55471801757812,7.08469915390015,-6.54955053329468,-2.08945965766907,-3.24561929702759,1.58620274066925,17.13671684265137
67,2173464702,-102.29518127441406,-45.14322662353516,-138.69934082031250,6.95453643798828,-6.59157085418701,-2.04900550842285,-1.38449609279633,1.33309769630432,17.43296432495117
68,2173481369,-102.24475860595703,-44.88147354125977,-138.85420227050781,6.95512771606445,-6.54478645324707,-2.09798526763916,-0.94455891847610,1.82013618946075,17.42982482910156
69,2173498036,-102.18647766113281,-44.61706542968750,-139.02177429199219,7.03996038436890,-6.50750684738159,-2.21586298942566,-0.97365498542786,2.36052632331848,17.70284461975098
70,2173514703,-102.14202880859375,-44.34893035888672,-139.21589660644531,7.09737300872803,-6.49510383605957,-2.03248834609985,-2.89171528816223,3.46930146217346,18.16559219360352
71,2173531370,-102.14556884765625,-44.07334136962891,-139.43618774414062,7.13616609573364,-6.48727655410767,-2.07178044319153,-6.81766271591187,4.51934814453125,18.84764862060547
72,2173548037,-102.15111541748047,-43.80252456665039,-139.71148681640625,7.09110403060913,-6.50994157791138,-2.31309342384338,-9.18232154846191,6.94417142868042,19.07988548278809
73,2173564704,-102.12024688720703,-43.53649902343750,-140.02444458007812,7.09165525436401,-6.55854845046997,-2.35229301452637,-8.50285434722900,8.65579509735107,19.15504646301270
74,2173581371,-102.06872558593750,-43.28843307495117,-140.36637878417969,7.02529954910278,-6.80851268768311,-2.11544275283813,-8.39128684997559,10.18289184570312,18.37047958374023
75,2173598038,-102.03208923339844,-43.04233551025391,-140.77708435058594,6.80144309997559,-6.88612842559814,-1.86053001880646,-12.04726791381836,13.22743320465088,18.89269447326660
76,2173614705,-101.98822021484375,-42.78961181640625,-141.20901489257812,6.86109256744385,-6.80171537399292,-2.09080386161804,-12.39925575256348,14.13989353179932,19.48216629028320
77,2173631372,-101.90377044677734,-42.53315734863281,-141.67526245117188,6.81746196746826,-6.99341392517090,-2.41523098945618,-11.27445888519287,15.66778469085693,20.01548957824707
78,2173648039,-101.82649993896484,-42.27033615112305,-142.15135192871094,6.55881118774414,-7.18177843093872,-2.11873579025269,-12.00515556335449,16.12628173828125,20.47256469726562
79,2173664706,-101.76797485351562,-42.01568984985352,-142.60035705566406,6.46759843826294,-7.13997173309326,-2.07560920715332,-11.94699859619141,15.15310955047607,19.74453163146973
80,2173681373,-101.70104980468750,-41.77604675292969,-143.09117126464844,6.45140695571899,-7.06761550903320,-2.20009016990662,-13.03130626678467,17.25626754760742,19.24130821228027
81,2173698040,-101.62326049804688,-41.54884719848633,-143.62155151367188,6.51598739624023,-6.97233963012695,-1.98591458797455,-13.86591625213623,19.24733734130859,18.86379814147949
82,2173714707,-101.55825042724609,-41.32368469238281,-144.14663696289062,6.52895498275757,-7.05554533004761,-1.89334058761597,-14.33065891265869,19.14454841613770,18.68858909606934
83,2173731374,-101.48743438720703,-41.11977767944336,-144.63858032226562,6.46152114868164,-7.31609010696411,-1.87362730503082,-12.57896995544434,18.02486610412598,17.13241577148438
84,2173748041,-101.39176940917969,-40.93406677246094,-145.11909484863281,6.39522314071655,-7.46819210052490,-1.87176537513733,-10.57050132751465,17.82559394836426,15.94913768768311
85,2173764708,-101.27209472656250,-40.75357437133789,-145.60803222656250,6.38381910324097,-7.45347976684570,-1.88355982303619,-9.38840866088867,18.34510803222656,15.69215106964111
86,2173781375,-101.14923858642578,-40.57635879516602,-146.09927368164062,6.38887786865234,-7.45517206192017,-1.98410129547119,-9.21913242340088,18.57801437377930,15.49085712432861
87,2173798042,-101.01504516601562,-40.40094375610352,-146.57487487792969,6.38898944854736,-7.38326120376587,-1.95543289184570,-7.86024665832520,17.98686981201172,15.21471118927002
88,2173814709,-100.88183593750000,-40.21686553955078,-147.04838562011719,6.45145940780640,-7.36438465118408,-1.95845270156860,-7.76719570159912,17.88302612304688,15.67400169372559
89,2173831376,-100.77751159667969,-40.02634811401367,-147.48068237304688,6.41146421432495,-7.41600227355957,-1.96873462200165,-7.83673381805420,16.04038619995117,15.67027091979980
90,2173848043,-100.71105194091797,-39.83070373535156,-147.86996459960938,6.31285047531128,-7.57774353027344,-1.88170170783997,-8.38414096832275,14.11060619354248,15.58788490295410
91,2173864710,-100.66389465332031,-39.64401626586914,-148.22045898437500,6.23969173431396,-7.52243328094482,-1.79775464534760,-7.99482345581055,12.51696395874023,14.72239971160889
92,2173881377,-100.63236999511719,-39.46192932128906,-148.54826354980469,6.31873369216919,-7.43079614639282,-1.69923436641693,-8.01460933685303,11.58439159393311,14.25661945343018
93,2173898044,-100.62058258056641,-39.29605102539062,-148.86859130859375,6.38412427902222,-7.34552145004272,-1.71303546428680,-8.86530876159668,11.46577548980713,13.23993301391602
94,2173914711,-100.63265228271484,-39.14764785766602,-149.18907165527344,6.42890024185181,-7.26453399658203,-1.79809784889221,-10.26438140869141,11.69772720336914,12.21717834472656
95,2173931378,-100.64046478271484,-39.01081466674805,-149.51466369628906,6.35972404479980,-7.40789651870728,-1.76701366901398,-10.16575717926025,12.08949851989746,11.58911418914795
96,2173948045,-100.62206268310547,-38.88416671752930,-149.84791564941406,6.25724411010742,-7.53630876541138,-1.80780911445618,-8.85389900207520,12.58074951171875,11.06222248077393
97,2173964712,-100.58766174316406,-38.78364562988281,-150.19172668457031,6.21390199661255,-7.50760221481323,-1.83068203926086,-8.25438117980957,13.37904739379883,9.60845661163330
98,2173981379,-100.59451293945312,-38.71732711791992,-150.56698608398438,6.44208955764771,-7.14473295211792,-1.72288811206818,-11.89108657836914,15.22337532043457,7.86284875869751
99,2173998046,-100.57286834716797,-38.64516448974609,-151.04516601562500,6.72056436538696,-7.28644800186157,-1.57468056678772,-14.01587867736816,19.91079139709473,9.09854316711426
100,2174014713,-100.66765594482422,-38.57905197143555,-151.50765991210938,6.47433853149414,-7.10457706451416,-1.38803815841675,-20.39457130432129,19.27084350585938,8.62513446807861
101,2174031380,-100.80430603027344,-38.53827285766602,-151.94238281250000,6.33566570281982,-7.20898771286011,-1.53062462806702,-21.84553337097168,18.26986885070801,6.93898105621338
102,2174048047,-100.93313598632812,-38.51549911499023,-152.43632507324219,6.10425233840942,-7.38638591766357,-1.57647442817688,-23.58112144470215,21.19582176208496,6.45081901550293
103,2174064714,-101.00781250000000,-38.51419830322266,-152.96391296386719,6.11056566238403,-7.89780473709106,-1.82314991950989,-21.58232688903809,22.98190498352051,5.52944993972778
104,2174081381,-101.08548736572266,-38.44638824462891,-153.46456909179688,6.23415088653564,-7.85251903533936,-1.77455043792725,-20.75008201599121,20.98091125488281,9.23943519592285
105,2174098048,-101.20011138916016,-38.43648910522461,-153.96934509277344,6.08606815338135,-7.12463378906250,-1.86121273040771,-23.09861373901367,21.83764076232910,5.90856981277466
106,2174114715,-101.26697540283203,-38.41332626342773,-154.50740051269531,6.25826930999756,-7.46645021438599,-1.83205115795135,-21.47143363952637,23.21194458007812,7.03553295135498
107,2174131382,-101.26907348632812,-38.39862060546875,-155.05007934570312,6.16425561904907,-8.26910209655762,-1.96553933620453,-17.75165748596191,23.52279853820801,6.59609222412109
108,2174148049,-101.27348327636719,-38.42406463623047,-155.60934448242188,6.19592285156250,-8.27693939208984,-1.76926863193512,-18.51133346557617,24.76032638549805,4.38889837265015
109,2174164716,-101.34426116943359,-38.42898178100586,-156.12182617187500,6.17958688735962,-7.70924091339111,-1.48044073581696,-20.75785636901855,22.35218238830566,5.18094778060913
110,2174181383,-101.47918701171875,-38.42076492309570,-156.54434204101562,6.11431360244751,-7.79346323013306,-1.29501461982727,-21.25648880004883,18.04232025146484,5.16062116622925
111,2174198050,-101.54443359375000,-38.46298980712891,-156.92210388183594,5.83914089202881,-7.87663745880127,-1.28973627090454,-15.40870380401611,16.56750869750977,1.80747234821320
112,2174214717,-101.65007781982422,-38.45377349853516,-157.12846374511719,6.11879920959473,-8.23101520538330,-2.08296346664429,-11.44768238067627,8.05177497863770,3.23673677444458
113,2174231384,-101.76513671875000,-38.43501281738281,-157.35466003417969,6.28579998016357,-7.81941843032837,-1.94925498962402,-12.74657917022705,8.84360408782959,4.00336408615112
114,2174248051,-101.85092926025391,-38.39266586303711,-157.61032104492188,6.62565994262695,-7.66609954833984,-1.85802066326141,-12.08482456207275,9.90174198150635,5.69044828414917
115,2174264718,-101.90225982666016,-38.30595016479492,-157.88917541503906,6.53714466094971,-7.45519542694092,-1.71316802501678,-10.87247467041016,10.43109703063965,8.53886699676514
116,2174281385,-101.92626190185547,-38.18577194213867,-158.20765686035156,6.47611427307129,-7.58367967605591,-1.78842282295227,-10.67751407623291,11.85678195953369,10.90082454681396
117,2174298052,-101.96591949462891,-38.06933593750000,-158.54354858398438,6.44396591186523,-7.80052566528320,-1.57164692878723,-12.23309135437012,12.72304344177246,10.86444187164307
118,2174314719,-102.04322814941406,-37.96505737304688,-158.87991333007812,6.73151445388794,-7.67058897018433,-1.63064742088318,-14.48031902313232,12.90461540222168,10.17726802825928
119,2174331386,-102.11881256103516,-37.88798141479492,-159.22543334960938,6.90687513351440,-7.53446674346924,-1.68589580059052,-14.69004631042480,13.67682743072510,8.69557094573975
120,2174348053,-102.18146514892578,-37.81060791015625,-159.62619018554688,7.08667516708374,-7.20182991027832,-1.54982495307922,-15.92913532257080,16.23527717590332,9.28881740570068
121,2174364720,-102.21632385253906,-37.73821640014648,-160.07722473144531,6.98874235153198,-7.27759027481079,-1.61090636253357,-16.08862876892090,18.63629913330078,9.52576351165771
122,2174381387,-102.23704528808594,-37.64786529541016,-160.58145141601562,6.58495235443115,-7.45373296737671,-1.87466859817505,-17.15873908996582,20.89243507385254,11.12990951538086
123,2174398054,-102.25523376464844,-37.59246063232422,-161.15081787109375,6.26079893112183,-7.59240436553955,-2.09050941467285,-19.36582183837891,24.37881660461426,9.75543403625488
124,2174414721,-102.25334930419922,-37.58103942871094,-161.75373840332031,6.20119190216064,-7.73602724075317,-2.04139566421509,-19.37453460693359,26.51042366027832,7.52109003067017
125,2174431388,-102.27774047851562,-37.58473968505859,-162.39601135253906,6.50538015365601,-7.53138637542725,-1.95109438896179,-22.39472579956055,28.52570152282715,7.04190635681152
126,2174448055,-102.25148010253906,-37.56142044067383,-163.04377746582031,6.32601308822632,-7.81496238708496,-1.97041034698486,-19.55110168457031,28.43839454650879,8.68297958374023
127,2174464722,-102.17781066894531,-37.50918579101562,-163.72512817382812,6.12718009948730,-7.90198326110840,-1.91089177131653,-17.91461563110352,29.65855979919434,10.69629001617432
128,2174481389,-102.07894134521484,-37.40439605712891,-164.30349731445312,5.54105424880981,-8.45058441162109,-2.09000158309937,-12.60377883911133,24.24685668945312,12.70943832397461
129,2174498056,-102.02887725830078,-37.24650573730469,-164.82194519042969,5.72139453887939,-7.97461891174316,-1.99115777015686,-13.28868770599365,20.84710121154785,15.20194530487061
130,2174514723,-101.99282836914062,-37.10767745971680,-165.36569213867188,5.85408496856689,-7.71829271316528,-1.72910940647125,-14.98165798187256,22.31999397277832,14.32742500305176
131,2174531390,-101.91026306152344,-36.97996902465820,-165.91365051269531,6.01884317398071,-7.49360132217407,-2.09768295288086,-12.28451442718506,22.71715545654297,13.70158672332764
132,2174548057,-101.84750366210938,-36.83616256713867,-166.33941650390625,5.99834775924683,-7.75190067291260,-2.23576498031616,-9.00929641723633,16.84099006652832,13.41998386383057
133,2174564724,-101.81926727294922,-36.69187164306641,-166.67445373535156,5.99697732925415,-8.04557037353516,-1.97707211971283,-7.77366876602173,12.61493015289307,12.54882431030273
134,2174581391,-101.79135894775391,-36.57864761352539,-166.98445129394531,6.04493284225464,-8.05986118316650,-2.01856470108032,-6.86149454116821,11.84859180450439,10.47489261627197
135,2174598058,-101.76223754882812,-36.48132705688477,-167.27717590332031,6.04228687286377,-7.82412433624268,-2.09549188613892,-6.14600324630737,11.25000953674316,9.36849975585938
136,2174614725,-101.72257232666016,-36.36848449707031,-167.56419372558594,5.88120222091675,-7.67525959014893,-2.04299473762512,-5.28304529190063,10.81177520751953,10.21969985961914
137,2174631392,-101.66648864746094,-36.26136016845703,-167.82397460937500,5.74179840087891,-7.76912069320679,-2.05183291435242,-3.30552625656128,9.62079620361328,9.61149978637695
138,2174648059,-101.63366699218750,-36.16142654418945,-168.03053283691406,5.63489580154419,-7.81903171539307,-2.09599542617798,-2.78826403617859,7.20455551147461,8.66123962402344
139,2174664726,-101.63655090332031,-36.04290771484375,-168.20849609375000,5.87933731079102,-7.83004951477051,-2.14065837860107,-3.89808750152588,5.63676214218140,9.47248363494873
140,2174681393,-101.57729339599609,-35.90852737426758,-168.43449401855469,5.99291610717773,-7.78292942047119,-2.28867769241333,-1.84597265720367,7.74495887756348,10.87427043914795
141,2174698060,-101.45814514160156,-35.78713607788086,-168.70904541015625,5.99212026596069,-7.74625873565674,-2.00769805908203,0.06690681725740,10.25271320343018,10.57202720642090
142,2174714727,-101.36746978759766,-35.66323471069336,-168.93943786621094,5.95923423767090,-7.62803697586060,-1.76305592060089,-0.06661866605282,8.15330123901367,10.27659511566162
143,2174731394,-101.31330108642578,-35.53058242797852,-169.12248229980469,5.76933908462524,-7.64797925949097,-1.83346354961395,-0.57742583751678,5.81226110458374,10.32979297637939
144,2174748061,-101.27300262451172,-35.39229583740234,-169.28950500488281,5.64308023452759,-7.79398012161255,-1.83818244934082,-0.83222097158432,5.00256586074829,10.50386905670166
145,2174764728,-101.23811340332031,-35.25231552124023,-169.46073913574219,5.73623132705688,-7.78832864761353,-1.78531646728516,-1.28273606300354,5.20457363128662,10.64161396026611
146,2174781395,-101.21419525146484,-35.12438201904297,-169.65037536621094,5.80022621154785,-7.61637067794800,-1.82284057140350,-2.56019520759583,6.24202919006348,10.10739707946777
147,2174798062,-101.18981170654297,-35.00408935546875,-169.86193847656250,5.74849748611450,-7.55951404571533,-1.87409234046936,-3.26848959922791,7.40642070770264,9.86841678619385
148,2174814729,-101.15456390380859,-34.88934326171875,-170.08160400390625,5.63184499740601,-7.70928096771240,-1.81932735443115,-2.87355422973633,7.88233137130737,9.61541461944580
149,2174831396,-101.13506317138672,-34.77552032470703,-170.28565979003906,5.61799335479736,-7.90294361114502,-1.78439819812775,-3.25921750068665,7.15633869171143,9.41207599639893
150,2174848063,-101.12815856933594,-34.67543029785156,-170.50025939941406,5.66608810424805,-7.86984491348267,-1.93719208240509,-4.35827159881592,7.83743190765381,8.70312881469727
151,2174864730,-101.10734558105469,-34.58269119262695,-170.75616455078125,5.72872018814087,-7.70213270187378,-2.09567737579346,-4.91616868972778,9.93789386749268,8.66481399536133
152,2174881397,-101.06416320800781,-34.47882080078125,-171.02816772460938,5.68037366867065,-7.77414989471436,-1.97601258754730,-4.09966135025024,10.61135578155518,9.46914386749268
153,2174898064,-101.04117584228516,-34.36524963378906,-171.28448486328125,5.58568048477173,-7.93568897247314,-1.76842594146729,-4.75407981872559,9.75854301452637,9.88923168182373
154,2174914731,-101.05564880371094,-34.26111602783203,-171.53123474121094,5.59965658187866,-7.92100334167480,-1.71530783176422,-6.65680980682373,9.41839218139648,9.24480152130127
155,2174931398,-101.07002258300781,-34.17301940917969,-171.77305603027344,5.80487871170044,-7.79727125167847,-1.87634086608887,-6.46227979660034,9.37230110168457,8.25823783874512
156,2174948065,-101.05104064941406,-34.06997680664062,-172.05093383789062,5.85747051239014,-7.68886137008667,-1.90737724304199,-5.65399551391602,10.97279167175293,9.48530673980713
157,2174964732,-101.00273132324219,-33.93790817260742,-172.37843322753906,5.47341442108154,-7.78436613082886,-1.77599847316742,-5.53014612197876,13.08141136169434,11.66483592987061
158,2174981399,-100.97194671630859,-33.83221817016602,-172.67965698242188,5.15813922882080,-7.87696933746338,-1.84085381031036,-5.67284631729126,12.13445568084717,9.85631847381592
159,2174998066,-100.99434661865234,-33.75210189819336,-172.91746520996094,5.30073308944702,-7.80747032165527,-1.90624117851257,-6.72204494476318,9.33389472961426,7.74850559234619
160,2175014733,-101.02210235595703,-33.66802597045898,-173.11192321777344,5.60923528671265,-7.85161066055298,-1.61998105049133,-5.58249568939209,7.16918420791626,7.57460737228394
161,2175031400,-101.04250335693359,-33.59940338134766,-173.32278442382812,5.68081951141357,-8.00024223327637,-1.59707248210907,-5.67413759231567,8.15226364135742,6.82631874084473
162,2175048067,-101.06617736816406,-33.51124572753906,-173.56428527832031,5.70503091812134,-8.09089565277100,-1.77751708030701,-6.87148189544678,9.44058322906494,8.27520656585693
163,2175064734,-101.10105895996094,-33.42543029785156,-173.82725524902344,5.28471946716309,-7.84649753570557,-1.91420674324036,-8.24127864837646,10.53065299987793,8.35431385040283
164,2175081401,-101.11837005615234,-33.34881210327148,-174.09536743164062,5.18304014205933,-7.95669937133789,-1.92584037780762,-7.33887624740601,10.89382553100586,7.86898946762085
165,2175098068,-101.13269805908203,-33.26420593261719,-174.33587646484375,5.31072187423706,-8.01118373870850,-1.93114233016968,-6.23045969009399,9.45474815368652,8.07778263092041
166,2175114735,-101.16667175292969,-33.20275115966797,-174.54476928710938,5.42003631591797,-7.74667501449585,-1.87254202365875,-6.35277175903320,8.17513561248779,6.41284036636353
167,2175131402,-101.18000793457031,-33.16489791870117,-174.77648925781250,5.55279064178467,-7.86010789871216,-1.85982787609100,-5.85561704635620,9.57627868652344,5.25280284881592
168,2175148069,-101.18740844726562,-33.13797378540039,-175.04479980468750,5.34526252746582,-7.98231744766235,-1.71272194385529,-6.69018316268921,11.50411319732666,4.96754217147827
169,2175164736,-101.18940734863281,-33.10718917846680,-175.31152343750000,5.25807380676270,-8.00752353668213,-1.76611530780792,-6.31571149826050,11.38660049438477,5.18253517150879
170,2175181403,-101.18684387207031,-33.07197189331055,-175.57321166992188,5.27537250518799,-7.94149684906006,-1.88747954368591,-5.86979484558105,11.09402656555176,5.39469766616821
171,2175198070,-101.16280364990234,-33.04500961303711,-175.85758972167969,5.31079339981079,-7.89076852798462,-1.92379033565521,-5.31562471389771,12.31239795684814,5.12709569931030
172,2175214737,-101.12977600097656,-33.02913284301758,-176.15068054199219,5.36147546768188,-7.95781326293945,-1.97258591651917,-5.05812692642212,12.87818145751953,4.55297374725342
173,2175231404,-101.10157775878906,-33.01330566406250,-176.44461059570312,5.26694011688232,-8.04894256591797,-1.92961287498474,-5.36797714233398,12.91837024688721,4.55106592178345
174,2175248071,-101.08914947509766,-33.01897048950195,-176.72903442382812,5.33249711990356,-8.04217338562012,-1.85889172554016,-6.00260972976685,12.70089244842529,3.18720197677612
175,2175264738,-101.06944274902344,-33.01058959960938,-177.01185607910156,5.37555503845215,-8.07926559448242,-1.89403009414673,-5.51737642288208,12.46376991271973,3.99565482139587
176,2175281405,-101.02948760986328,-32.99224472045898,-177.30651855468750,5.32425642013550,-7.98493432998657,-1.85824346542358,-4.68720436096191,12.93583679199219,4.68911886215210
177,2175298072,-100.99274444580078,-32.97578430175781,-177.59234619140625,5.26746082305908,-7.78566074371338,-1.82907593250275,-4.58810853958130,12.52673816680908,4.48433208465576
178,2175314739,-100.97265625000000,-32.97931289672852,-177.87339782714844,5.20245170593262,-7.75020217895508,-1.84683704376221,-5.43004941940308,12.51965522766113,3.25375604629517
179,2175331406,-100.95654296875000,-33.00051879882812,-178.14889526367188,5.24445247650146,-7.99428415298462,-1.88389813899994,-5.48779296875000,12.44446945190430,2.15481662750244
180,2175348073,-100.96291351318359,-33.02815246582031,-178.39910888671875,5.38544654846191,-7.97347831726074,-1.78550577163696,-6.02111339569092,11.26581096649170,1.53304255008698
181,2175364740,-100.97745513916016,-33.08188629150391,-178.63153076171875,5.63024091720581,-7.88999795913696,-1.72022700309753,-5.93202018737793,10.67966365814209,-0.17465311288834
182,2175381407,-100.97299957275391,-33.16112136840820,-178.86468505859375,5.73221111297607,-7.83872509002686,-1.91072475910187,-4.83716535568237,11.00067901611328,-1.66811740398407
183,2175398074,-100.95005035400391,-33.23505020141602,-179.13708496093750,5.61486005783081,-8.05682659149170,-1.82331013679504,-5.03265523910522,12.86272525787354,-0.98423260450363
184,2175414741,-100.89491271972656,-33.28266143798828,-179.46061706542969,5.29910898208618,-8.13353347778320,-1.70900762081146,-4.79673767089844,15.07135200500488,1.03914010524750
185,2175431408,-100.82952880859375,-33.32308197021484,-179.75776672363281,5.13191413879395,-8.05051326751709,-1.87155234813690,-3.32704067230225,13.68161487579346,1.19480121135712
186,2175448075,-100.81722259521484,-33.36493301391602,-179.98860168457031,5.37322425842285,-8.16226577758789,-1.97953081130981,-4.33627080917358,10.42284297943115,0.47359821200371
187,2175464742,-100.78826904296875,-33.41950225830078,179.80424499511719,5.65252161026001,-8.42191028594971,-1.69800770282745,-2.56653451919556,9.39894962310791,-0.50391727685928
188,2175481409,-100.74604034423828,-33.47918319702148,179.57044982910156,5.72040700912476,-8.31571578979492,-1.60558438301086,-2.65715193748474,10.75617980957031,-0.56620734930038
189,2175498076,-100.71662139892578,-33.54293823242188,179.30433654785156,5.60664796829224,-8.10030841827393,-1.81446528434753,-4.51655817031860,12.38116645812988,-0.51152426004410
190,2175514743,-100.66846466064453,-33.58943557739258,179.04577636718750,5.45524549484253,-7.92162036895752,-1.85703206062317,-3.14775109291077,11.80709552764893,0.42238566279411
191,2175531410,-100.60281372070312,-33.59799194335938,178.82049560546875,5.46431064605713,-7.98496055603027,-1.80179142951965,-1.00246858596802,9.75650215148926,2.33867740631104
192,2175548077,-100.56341552734375,-33.62444686889648,178.63764953613281,5.65379428863525,-8.09705352783203,-1.72039306163788,-1.17406070232391,7.85849666595459,0.88296592235565
193,2175564744,-100.53970336914062,-33.67895889282227,178.45455932617188,5.74818420410156,-8.22839927673340,-1.74805819988251,-2.13184762001038,8.17405700683594,-0.77657717466354
194,2175581411,-100.49485778808594,-33.74235916137695,178.25636291503906,5.74044322967529,-8.30217552185059,-1.79915618896484,-1.37620913982391,9.01067256927490,-1.16825962066650
195,2175598078,-100.43814849853516,-33.77635574340820,178.06025695800781,5.48715305328369,-8.29317378997803,-1.67058396339417,-0.60456240177155,8.58053302764893,0.53538882732391
196,2175614745,-100.35358428955078,-33.79548645019531,177.92799377441406,5.23321723937988,-8.46664714813232,-1.57542860507965,3.19382095336914,5.28338241577148,0.82501715421677
197,2175631412,-100.28075408935547,-33.81723785400391,177.86761474609375,5.14881515502930,-8.20530223846436,-1.61366581916809,4.88678169250488,1.78270161151886,0.01609118096530
198,2175648079,-100.25714874267578,-33.88162994384766,177.81990051269531,5.58763217926025,-7.99463701248169,-1.63506639003754,2.35234141349792,1.61719250679016,-2.61915516853333
199,2175664746,-100.24543762207031,-33.92926025390625,177.72508239746094,5.94468641281128,-8.07181549072266,-1.72437942028046,0.05502248927951,3.75019264221191,-1.21331226825714
200,2175681413,-100.21822357177734,-33.97684097290039,177.57716369628906,5.98903560638428,-8.14842605590820,-1.78285741806030,-0.79663193225861,6.34368419647217,-0.74278122186661
201,2175698080,-100.19879150390625,-34.03108215332031,177.42132568359375,5.83767461776733,-7.98002052307129,-1.70235550403595,-1.53549456596375,6.79145908355713,-1.06925380229950
202,2175714747,-100.20039367675781,-34.08855056762695,177.30175781250000,5.61185646057129,-8.16619014739990,-1.61952006816864,-1.58296740055084,5.04818058013916,-1.58175075054169
203,2175731414,-100.21626281738281,-34.14899826049805,177.22021484375000,5.49830150604248,-8.27481937408447,-1.62191390991211,-1.17256236076355,3.22301936149597,-2.09186625480652
204,2175748081,-100.25316619873047,-34.23276519775391,177.14396667480469,5.59723854064941,-8.02741718292236,-1.65468013286591,-2.25649166107178,3.20729303359985,-3.51469016075134
205,2175764748,-100.32051849365234,-34.31953430175781,177.02444458007812,5.87108755111694,-7.87169408798218,-1.70114016532898,-5.55440950393677,5.34859180450439,-3.30788064002991
206,2175781415,-100.41591644287109,-34.38252258300781,176.87159729003906,5.89113855361938,-8.12653923034668,-1.82057523727417,-8.37232112884521,6.71444225311279,-1.59714472293854
207,2175798082,-100.48744964599609,-34.43989562988281,176.69387817382812,5.65281534194946,-8.23091316223145,-1.77583742141724,-7.79174566268921,7.86405611038208,-1.03073239326477
208,2175814749,-100.54127502441406,-34.50200653076172,176.52415466308594,5.55260133743286,-8.11901664733887,-1.64071273803711,-6.46787500381470,7.52345752716064,-1.37444198131561
209,2175831416,-100.58841705322266,-34.56549072265625,176.35971069335938,5.63699531555176,-7.99734830856323,-1.71118676662445,-5.89843988418579,7.27628183364868,-1.49767732620239
210,2175848083,-100.62442779541016,-34.63199234008789,176.19848632812500,5.73869657516479,-8.08884716033936,-1.70534622669220,-5.13169813156128,7.14870500564575,-1.69963371753693
211,2175864750,-100.63838958740234,-34.70199203491211,175.97100830078125,5.63009738922119,-8.19496250152588,-1.65868616104126,-6.07711553573608,10.39291477203369,-1.29914081096649
212,2175881417,-100.62596893310547,-34.77109146118164,175.72323608398438,5.54246139526367,-8.05825424194336,-1.58718109130859,-5.20233821868896,11.35892295837402,-1.06637239456177
213,2175898084,-100.64974212646484,-34.82625198364258,175.51116943359375,5.61283111572266,-7.98996734619141,-1.81789910793304,-6.16792488098145,9.46965312957764,-0.56995958089828
214,2175914751,-100.69210815429688,-34.87649154663086,175.29922485351562,5.54620933532715,-8.17865753173828,-1.76607882976532,-7.28837966918945,9.39778423309326,-0.27623316645622
215,2175931418,-100.75254821777344,-34.92858123779297,175.09861755371094,5.47403049468994,-8.23341369628906,-1.55015802383423,-7.99399709701538,8.86458015441895,-0.48183917999268
216,2175948085,-100.84524536132812,-34.96616363525391,174.92524719238281,5.42641353607178,-8.26144313812256,-1.60300362110138,-9.00478839874268,7.38019371032715,0.13274426758289
217,2175964752,-100.95776367187500,-34.97236251831055,174.76985168457031,5.34400939941406,-8.26807785034180,-1.78772163391113,-9.57736110687256,6.15577840805054,1.82870292663574
218,2175981419,-101.03008270263672,-34.95215606689453,174.58544921875000,5.50365543365479,-8.19408988952637,-1.88094985485077,-8.16074752807617,7.24586772918701,3.66644001007080
219,2175998086,-101.06703186035156,-34.94518280029297,174.36630249023438,5.72710895538330,-7.96325349807739,-1.74540889263153,-7.23064851760864,9.07548713684082,3.22103524208069
220,2176014753,-101.07891845703125,-34.95009994506836,174.13835144042969,5.81923770904541,-7.94613885879517,-1.62819004058838,-6.03480195999146,9.64663600921631,2.61017203330994
221,2176031420,-101.07019042968750,-34.95118713378906,173.90695190429688,5.76941347122192,-7.97103881835938,-1.62594974040985,-4.91595029830933,9.76408481597900,2.86635041236877
222,2176048087,-101.04820251464844,-34.96033096313477,173.68974304199219,5.67428636550903,-8.05271339416504,-1.72019791603088,-3.63468647003174,9.17102050781250,2.25592255592346
223,2176064754,-101.03220367431641,-34.97537231445312,173.49484252929688,5.60805702209473,-8.13774299621582,-1.72984564304352,-3.23141407966614,8.15742301940918,1.69482469558716
224,2176081421,-100.98582458496094,-35.01301193237305,173.31883239746094,5.75063419342041,-8.07288265228271,-1.79605102539062,-0.75887876749039,7.50246667861938,0.17900077998638
225,2176098088,-100.90837097167969,-35.04553985595703,173.16053771972656,5.76730012893677,-7.87571763992310,-1.76700663566589,1.70300793647766,6.58947658538818,0.30437496304512
226,2176114755,-100.80040740966797,-35.06352233886719,173.00099182128906,5.58494663238525,-8.03203201293945,-1.80355000495911,3.49054455757141,6.48260831832886,1.15901982784271
227,2176131422,-100.69131469726562,-35.08240127563477,172.85781860351562,5.48476362228394,-8.16703605651855,-1.56493306159973,4.12303733825684,5.70149707794189,0.93942916393280
228,2176148089,-100.63146972656250,-35.08097839355469,172.74026489257812,5.56575250625610,-8.32213306427002,-1.53035569190979,2.04605150222778,4.23566865921021,1.89173483848572
229,2176164756,-100.62080383300781,-35.05296325683594,172.63023376464844,5.78323936462402,-8.22415351867676,-1.74355602264404,-0.64345502853394,3.57725548744202,3.38747787475586
230,2176181423,-100.59867858886719,-35.01494979858398,172.49011230468750,5.95665359497070,-8.05610847473145,-1.83292639255524,-0.98754876852036,4.92591762542725,4.24590063095093
231,2176198090,-100.55674743652344,-34.96360397338867,172.35501098632812,5.82412338256836,-7.95434141159058,-1.78887116909027,0.37443849444389,4.54056215286255,4.98436594009399
232,2176214757,-100.48220825195312,-34.92842483520508,172.24403381347656,5.57813835144043,-8.02338981628418,-1.68054604530334,3.16889929771423,3.56510233879089,3.80815410614014
233,2176231424,-100.40007781982422,-34.90530395507812,172.16429138183594,5.29939174652100,-8.32369232177734,-1.63688433170319,4.69969367980957,2.18569183349609,2.81087231636047
234,2176248091,-100.35997772216797,-34.88006591796875,172.09103393554688,5.44623899459839,-8.25666904449463,-1.74183452129364,2.40223431587219,1.85134351253510,2.87175345420837
235,2176264758,-100.35234069824219,-34.82227325439453,172.01058959960938,5.61393976211548,-8.25623321533203,-1.73909091949463,0.20316636562347,1.85837459564209,4.85563707351685
236,2176281425,-100.39267730712891,-34.80557250976562,171.91778564453125,6.17619276046753,-7.69233846664429,-1.56294226646423,-3.09186291694641,2.89659810066223,2.53880143165588
237,2176298092,-100.40998077392578,-34.75073242187500,171.84141540527344,5.86067247390747,-7.94273090362549,-1.49170875549316,-1.14712893962860,1.68778097629547,4.64695787429810
238,2176314759,-100.40575408935547,-34.70722961425781,171.77731323242188,5.61324834823608,-8.06832027435303,-1.65812623500824,0.56983774900436,1.21441972255707,3.86899662017822
239,2176331426,-100.40825653076172,-34.65936660766602,171.67237854003906,5.29523181915283,-8.24154853820801,-1.49869000911713,-1.22519636154175,3.15189242362976,4.48950290679932
240,2176348093,-100.44021606445312,-34.64860534667969,171.61393737792969,5.67538928985596,-7.85783100128174,-1.59913861751556,-1.41129815578461,1.30784201622009,1.88758528232574
241,2176364760,-100.47702789306641,-34.67244338989258,171.53544616699219,6.07825469970703,-7.75058937072754,-1.96666502952576,-2.38017535209656,2.64596462249756,0.02373657003045
242,2176381427,-100.48200988769531,-34.72933578491211,171.41856384277344,5.95841693878174,-7.95532798767090,-1.74604392051697,-1.78748500347137,4.87023639678955,-1.57877993583679
243,2176398094,-100.49153137207031,-34.78401565551758,171.31245422363281,6.17185020446777,-7.67687606811523,-1.43761503696442,-1.69372928142548,4.31591272354126,-1.54465067386627
244,2176414761,-100.48903656005859,-34.81684875488281,171.24070739746094,5.71542644500732,-7.94090795516968,-1.47632741928101,0.19658389687538,2.40784358978271,-0.56231403350830
245,2176431428,-100.51701354980469,-34.84993362426758,171.16548156738281,5.62125349044800,-7.98268795013428,-1.66695392131805,-1.75454664230347,2.58432769775391,-0.54583215713501
246,2176448095,-100.51436614990234,-34.89842987060547,171.03578186035156,5.83073329925537,-7.87947273254395,-1.63927042484283,-1.78936731815338,5.38126039505005,-0.96541953086853
247,2176464762,-100.50850677490234,-34.95075607299805,170.86968994140625,5.88367509841919,-7.90522861480713,-1.68942928314209,-2.85128331184387,7.18458747863770,-0.86545330286026
248,2176481429,-100.48191833496094,-35.01345443725586,170.65945434570312,5.90360927581787,-7.88687038421631,-1.78133523464203,-3.13235735893250,9.42655944824219,-1.08748996257782
249,2176498096,-100.35413360595703,-35.08182144165039,170.35668945312500,5.82786130905151,-7.89637565612793,-1.66416132450104,-0.26259440183640,13.94369888305664,-0.61429548263550
250,2176514763,-100.15663909912109,-35.17353439331055,170.04322814941406,5.52753353118896,-8.06032466888428,-1.32608032226562,3.53148818016052,14.69353675842285,-1.94522213935852
251,2176531430,-100.07176971435547,-35.27534866333008,169.85266113281250,5.37679004669189,-8.13921070098877,-1.31605637073517,0.99682724475861,8.84462356567383,-3.64294624328613
252,2176548097,-100.14245605468750,-35.37885665893555,169.80416870117188,5.54135513305664,-8.01195430755615,-1.67601120471954,-3.42393183708191,1.99960303306580,-4.97001695632935
253,2176564764,-100.20201110839844,-35.50197982788086,169.74250793457031,5.61485099792480,-7.88869380950928,-2.02383041381836,-3.22220611572266,2.84534740447998,-6.01209545135498
254,2176581431,-100.13046264648438,-35.72830200195312,169.60575866699219,5.62574720382690,-7.78711748123169,-1.77414679527283,2.01168036460876,7.54453897476196,-11.46226692199707
255,2176598098,-100.06004333496094,-35.99042892456055,169.52964782714844,5.67801713943481,-7.80357551574707,-1.32003057003021,4.04768610000610,4.98092412948608,-14.10882854461670
256,2176614765,-100.07437133789062,-36.28254318237305,169.55888366699219,5.51588106155396,-7.98544692993164,-1.20799016952515,2.67540907859802,0.24996097385883,-16.78053474426270
257,2176631432,-100.15401458740234,-36.55550003051758,169.62593078613281,5.92713212966919,-7.84579181671143,-1.38109529018402,0.10440386086702,-1.72794950008392,-15.96987724304199
258,2176648099,-100.31399536132812,-36.85528564453125,169.68121337890625,6.04488134384155,-7.59616565704346,-1.49694561958313,-5.11751270294189,-0.84532243013382,-17.45051574707031
259,2176664766,-100.39337158203125,-37.17737579345703,169.68376159667969,6.23500490188599,-7.42320775985718,-1.34451425075531,-2.17443108558655,1.93467652797699,-18.30955314636230
260,2176681433,-100.48078155517578,-37.51588821411133,169.75091552734375,6.08156538009644,-7.52289438247681,-1.16906046867371,-0.30622586607933,-0.89330816268921,-19.83174896240234
261,2176698100,-100.62017059326172,-37.81945419311523,169.85443115234375,6.23959732055664,-7.54524421691895,-1.49241423606873,-2.07527160644531,-2.91863489151001,-18.08375358581543
262,2176714767,-100.69380187988281,-38.13241195678711,169.90078735351562,6.12047481536865,-7.49914503097534,-1.60129511356354,-0.21686296164989,-0.10260458290577,-18.13459205627441
263,2176731434,-100.70201110839844,-38.51094818115234,169.91865539550781,6.24944734573364,-7.44727849960327,-1.45381283760071,2.66198968887329,1.96867823600769,-21.74992752075195
264,2176748101,-100.78384399414062,-38.90716171264648,169.96371459960938,6.39376115798950,-7.45370101928711,-1.49566221237183,-0.73111593723297,0.93807321786880,-23.02692222595215
265,2176764768,-100.83185577392578,-39.29687118530273,169.99130249023438,6.53898191452026,-7.41751146316528,-1.69542276859283,0.65574383735657,1.70475220680237,-22.48637580871582
266,2176781435,-100.79982757568359,-39.68477630615234,170.04145812988281,6.33274126052856,-7.50402498245239,-1.49388265609741,6.32387018203735,0.67132925987244,-22.57245063781738
267,2176798102,-100.68999481201172,-40.10457229614258,169.98609924316406,6.01899051666260,-7.52277088165283,-1.37236225605011,6.94859409332275,5.78238058090210,-23.54748344421387
268,2176814769,-100.57461547851562,-40.54040908813477,170.05557250976562,6.37236642837524,-7.34591674804688,-1.21814763545990,12.10729312896729,0.28499975800514,-25.56629943847656
269,2176831436,-100.47406768798828,-40.90235137939453,170.12921142578125,6.77778959274292,-7.10706377029419,-1.58772933483124,11.40118885040283,-0.73951691389084,-21.24290847778320
270,2176848103,-100.30124664306641,-41.28856277465820,170.03343200683594,6.56417798995972,-7.14491224288940,-1.64042615890503,9.07949733734131,7.02580165863037,-21.29104804992676
271,2176864770,-100.19444274902344,-41.72961807250977,170.04348754882812,6.46925592422485,-7.31064271926880,-1.20068442821503,9.29299545288086,2.84786391258240,-25.40056228637695
272,2176881437,-100.22496032714844,-42.13565063476562,170.19488525390625,6.55371665954590,-7.27394866943359,-1.20452547073364,6.72249746322632,-3.74342012405396,-24.45469093322754
273,2176898104,-100.30300903320312,-42.50746917724609,170.41001892089844,6.44161510467529,-7.28042078018188,-1.57075035572052,6.48781919479370,-6.82488965988159,-22.93277549743652
274,2176914771,-100.28400421142578,-42.90631484985352,170.64418029785156,6.55436897277832,-7.07627439498901,-1.62111330032349,13.15260028839111,-7.29597759246826,-24.67543411254883
275,2176931438,-100.31723022460938,-43.29047775268555,171.01266479492188,6.72163295745850,-6.79009008407593,-1.35575413703918,15.60014152526855,-13.17853641510010,-24.84982299804688
276,2176948105,-100.52214813232422,-43.64014434814453,171.48379516601562,6.90002155303955,-6.69470214843750,-1.26860988140106,9.63435745239258,-17.78545379638672,-23.63236618041992
277,2176964772,-100.78380584716797,-43.95865249633789,171.87724304199219,7.08711528778076,-6.72040462493896,-1.43861961364746,3.12056303024292,-14.62150764465332,-21.21716308593750
278,2176981439,-101.01712036132812,-44.24818420410156,172.11422729492188,7.30033779144287,-6.68498659133911,-1.23236668109894,-1.61841726303101,-8.14586162567139,-18.27496528625488
279,2176998106,-101.36164855957031,-44.48409652709961,172.25224304199219,7.52928018569946,-6.49804973602295,-1.12796485424042,-12.40834522247314,-4.45972728729248,-14.31929779052734
280,2177014773,-101.74669647216797,-44.66037368774414,172.35890197753906,7.25352287292480,-6.66115093231201,-1.47240602970123,-16.12963104248047,-3.75736212730408,-10.55924606323242
281,2177031440,-101.94635009765625,-44.80753707885742,172.38749694824219,6.78346824645996,-7.14708089828491,-2.24388098716736,-8.28955364227295,-0.79126626253128,-8.17589759826660
282,2177048107,-101.86600494384766,-44.99214935302734,172.28469848632812,6.53977394104004,-7.34684324264526,-2.20495676994324,2.95170474052429,5.15169525146484,-9.22157382965088
283,2177064774,-101.76596069335938,-45.18121719360352,172.24322509765625,6.53310585021973,-7.35311079025269,-1.93669855594635,6.72238302230835,2.63919162750244,-10.03093719482422
284,2177081441,-101.72444915771484,-45.37332153320312,172.28865051269531,6.67479419708252,-7.39697647094727,-1.89324438571930,6.90959978103638,-0.93496656417847,-10.96577739715576
285,2177098108,-101.62287139892578,-45.57758712768555,172.29154968261719,6.98375892639160,-7.30050802230835,-1.84249484539032,8.70213222503662,0.95906186103821,-11.31972026824951
286,2177114775,-101.43896484375000,-45.75757980346680,172.22752380371094,7.19207859039307,-6.94432353973389,-1.82342696189880,10.77165126800537,3.38777470588684,-9.34048366546631
287,2177131442,-101.21346282958984,-45.90193176269531,172.12670898437500,7.13410329818726,-6.68332481384277,-1.73416864871979,11.66917324066162,4.43433666229248,-6.96042299270630
288,2177148109,-100.96279907226562,-46.03913879394531,172.04310607910156,6.89410543441772,-6.72323083877563,-1.59514355659485,13.91501426696777,3.60426688194275,-6.70460367202759
289,2177164776,-100.69127655029297,-46.17983245849609,171.98042297363281,6.81204605102539,-6.93177986145020,-1.46513330936432,16.06059265136719,2.75045442581177,-7.10001373291016
290,2177181443,-100.40897369384766,-46.32420730590820,171.94859313964844,6.65392780303955,-7.10101509094238,-1.42046868801117,18.04423904418945,1.49201214313507,-7.57646417617798
291,2177198110,-100.06802368164062,-46.47572326660156,171.91340637207031,6.68999767303467,-6.94518947601318,-1.30675733089447,21.41157150268555,1.65204131603241,-7.98996067047119
292,2177214777,-99.72386169433594,-46.59139633178711,171.92308044433594,6.78688049316406,-7.12833309173584,-1.33163106441498,23.55068969726562,-0.59673875570297,-6.21234798431396
293,2177231444,-99.44616699218750,-46.68830490112305,171.98063659667969,6.87293052673340,-6.96339273452759,-1.10403466224670,21.65212631225586,-2.76020884513855,-5.43718910217285
294,2177248111,-99.24021148681641,-46.77161788940430,172.09942626953125,6.80827188491821,-6.85749387741089,-1.27814674377441,20.02721977233887,-5.40296888351440,-5.03796148300171
295,2177264778,-99.06095123291016,-46.84951782226562,172.23724365234375,6.57709741592407,-6.81449556350708,-1.34132814407349,19.26137351989746,-6.23150253295898,-4.82760429382324
296,2177281445,-98.92372131347656,-46.90769195556641,172.40159606933594,6.45841264724731,-6.91683340072632,-1.18488156795502,17.91549682617188,-7.50476169586182,-3.81879472732544
297,2177298112,-98.89747619628906,-46.94987106323242,172.60520935058594,6.70033884048462,-6.58556842803955,-1.09838104248047,12.98090457916260,-9.24238777160645,-3.11289310455322
298,2177314779,-98.98431396484375,-46.95994949340820,172.88345336914062,7.29054069519043,-6.42490625381470,-1.21564865112305,9.46946430206299,-12.55721282958984,-1.69303929805756
299,2177331446,-99.16149139404297,-46.96148681640625,173.22848510742188,7.25289726257324,-6.67318677902222,-1.09933137893677,6.98088264465332,-15.32688522338867,-1.64121222496033
300,2177348113,-99.34483337402344,-46.99613189697266,173.59118652343750,7.05184459686279,-6.95893526077271,-1.17747652530670,7.39035272598267,-15.71034336090088,-3.76414847373962
301,2177364780,-99.48879241943359,-47.06463623046875,173.92456054687500,6.96121406555176,-6.93617439270020,-1.39265596866608,8.47731971740723,-14.16616725921631,-5.61174821853638
302,2177381447,-99.63309478759766,-47.15086746215820,174.23725891113281,6.91039371490479,-6.65056133270264,-1.50381183624268,7.57092332839966,-13.12229537963867,-6.55182504653931
303,2177398114,-99.78615570068359,-47.24395370483398,174.50526428222656,6.94537448883057,-6.58139896392822,-1.61246728897095,5.10007429122925,-11.21555137634277,-6.67963027954102
304,2177414781,-99.94253540039062,-47.34671783447266,174.73851013183594,6.99797773361206,-6.81180715560913,-1.63209402561188,3.38219094276428,-9.68063163757324,-7.03198337554932
305,2177431448,-100.07067108154297,-47.46672821044922,174.94161987304688,6.96843624114990,-7.04989576339722,-1.55739808082581,3.76675248146057,-8.25959968566895,-7.85735130310059
306,2177448115,-100.16154479980469,-47.60288619995117,175.13996887207031,6.84752702713013,-7.13377761840820,-1.68132030963898,5.81319665908813,-7.85906934738159,-8.79151344299316
307,2177464782,-100.24198150634766,-47.75729370117188,175.36447143554688,6.77689504623413,-6.85586452484131,-1.65105795860291,7.61802339553833,-8.67101955413818,-10.06259727478027
308,2177481449,-100.35949707031250,-47.92984771728516,175.66670227050781,6.81240653991699,-6.78746938705444,-1.48221337795258,8.87755775451660,-11.50390720367432,-11.70497894287109
309,2177498116,-100.50608062744141,-48.12502288818359,176.04415893554688,6.99648427963257,-6.90406799316406,-1.36363601684570,10.52999401092529,-14.15586757659912,-13.60459136962891
310,2177514783,-100.65722656250000,-48.30688095092773,176.44233703613281,7.33845329284668,-6.88986825942993,-1.48454260826111,11.22786617279053,-15.02270889282227,-12.99715042114258
311,2177531450,-100.71212005615234,-48.44905471801758,176.80813598632812,7.62662601470947,-6.86050939559937,-1.83456099033356,15.60000324249268,-14.12408733367920,-10.43594074249268
312,2177548117,-100.75679016113281,-48.56779098510742,177.17643737792969,7.42058658599854,-6.68869256973267,-1.74047660827637,16.35450172424316,-14.43593406677246,-9.07756710052490
313,2177564784,-100.84148406982422,-48.67786788940430,177.58879089355469,7.31807756423950,-6.81144332885742,-1.63325810432434,15.97530555725098,-16.20566177368164,-8.90495109558105
314,2177581451,-100.99073791503906,-48.77225875854492,178.07164001464844,7.28482341766357,-6.67868661880493,-1.60290920734406,15.30173492431641,-19.06803321838379,-8.53646469116211
315,2177598118,-101.11946105957031,-48.85245132446289,178.56130981445312,7.63967895507812,-6.71358680725098,-1.69237375259399,16.87655258178711,-19.44250869750977,-7.79236316680908
316,2177614785,-101.30283355712891,-48.88524246215820,179.12538146972656,7.48571968078613,-6.41021966934204,-1.64150655269623,16.98656463623047,-22.83785629272461,-5.62097883224487
317,2177631452,-101.46138000488281,-48.93530654907227,179.68498229980469,7.36398077011108,-6.28724670410156,-1.61904728412628,18.28030776977539,-22.41798210144043,-6.66240882873535
318,2177648119,-101.71766662597656,-48.98624038696289,-179.71591186523438,7.31654977798462,-6.22427177429199,-1.59703123569489,14.22336864471436,-23.88009452819824,-7.09810638427734
319,2177664786,-102.01747894287109,-49.06531524658203,-179.13594055175781,7.40297365188599,-6.47348976135254,-1.59800410270691,10.77357864379883,-22.72563743591309,-8.70034790039062
320,2177681453,-102.31600189208984,-49.12158203125000,-178.58972167968750,7.56636953353882,-6.48794937133789,-1.41321706771851,9.34611320495605,-21.63961410522461,-7.19090843200684
321,2177698120,-102.65431213378906,-49.14677429199219,-177.99285888671875,7.58233833312988,-6.20584869384766,-1.71133983135223,9.27246665954590,-23.92087364196777,-5.90906906127930
322,2177714787,-102.95437622070312,-49.17396163940430,-177.39999389648438,7.46835327148438,-6.46900320053101,-1.84931898117065,11.39749336242676,-23.69411087036133,-6.11617374420166
323,2177731454,-103.21287536621094,-49.23509979248047,-176.79934692382812,7.29840326309204,-6.69958257675171,-1.91593492031097,14.26034259796143,-23.47367286682129,-8.27363204956055
324,2177748121,-103.44097900390625,-49.30903625488281,-176.24198913574219,7.59776687622070,-6.57536602020264,-1.75842332839966,14.14798545837402,-21.57783317565918,-8.72042846679688
325,2177764788,-103.64878082275391,-49.39010238647461,-175.79100036621094,7.60626792907715,-6.21127080917358,-1.40599799156189,10.55100822448730,-17.36610603332520,-8.23274135589600
326,2177781455,-103.85622406005859,-49.44845199584961,-175.37936401367188,7.77812433242798,-6.11185836791992,-1.72080779075623,8.80178356170654,-16.14160537719727,-6.59500980377197
327,2177798122,-104.05228424072266,-49.48541259765625,-174.99089050292969,7.73977184295654,-6.46235895156860,-2.30608272552490,8.43764686584473,-15.53632545471191,-5.17907381057739
328,2177814789,-104.26546478271484,-49.47116470336914,-174.60958862304688,7.61770486831665,-6.95100784301758,-2.13002157211304,7.08907032012939,-15.98938274383545,-2.18375372886658
329,2177831456,-104.60662841796875,-49.45107650756836,-174.18949890136719,7.50823545455933,-6.35201883316040,-1.80763924121857,1.17652702331543,-17.53333282470703,-2.29532289505005
330,2177848123,-104.95507812500000,-49.43233871459961,-173.84982299804688,7.78332948684692,-5.98265933990479,-1.83697140216827,-2.92586898803711,-14.46524333953857,-1.67596828937531
331,2177864790,-105.30053710937500,-49.40702056884766,-173.52595520019531,7.89597082138062,-5.95114183425903,-2.20641851425171,-3.48025655746460,-13.96522140502930,-1.21364581584930
332,2177881457,-105.54413604736328,-49.38473892211914,-173.24598693847656,7.70755863189697,-6.15936994552612,-2.32661461830139,0.63192331790924,-12.26377773284912,-0.99806344509125
333,2177898124,-105.74380493164062,-49.36564636230469,-173.01394653320312,7.67052698135376,-6.28868150711060,-2.14285326004028,1.07440829277039,-10.40249824523926,-0.71961462497711
334,2177914791,-105.97592163085938,-49.31996154785156,-172.78338623046875,7.59285211563110,-6.29336547851562,-2.29982542991638,-0.93750196695328,-10.78671455383301,0.79378259181976
335,2177931458,-106.23731231689453,-49.19353485107422,-172.57316589355469,7.71201467514038,-6.27424001693726,-2.51263666152954,-3.62699103355408,-11.38168716430664,5.62074232101440
336,2177948125,-106.47145843505859,-48.98401641845703,-172.40109252929688,7.71347093582153,-6.54769277572632,-2.35763502120972,-3.74851155281067,-11.39449977874756,10.77677822113037
337,2177964792,-106.68208312988281,-48.60537338256836,-172.26387023925781,7.62509584426880,-6.74677562713623,-2.11451148986816,-3.94374990463257,-13.04838085174561,20.84257888793945
338,2177981459,-106.93402099609375,-48.27682113647461,-172.03642272949219,7.58847904205322,-6.26003074645996,-2.10587501525879,-2.40868663787842,-15.73453807830811,16.86879158020020
339,2177998126,-107.06217193603516,-48.01976013183594,-171.74754333496094,7.51344060897827,-5.92633819580078,-2.37596106529236,7.73013830184937,-16.94151115417480,11.98059749603271
340,2178014793,-107.07397460937500,-47.77676391601562,-171.47021484375000,7.34955263137817,-5.75056934356689,-2.36379241943359,14.14099884033203,-16.31228637695312,11.27824878692627
341,2178031460,-107.05172729492188,-47.60358428955078,-171.09593200683594,7.12907981872559,-6.12498998641968,-2.48375797271729,20.44531631469727,-18.86935615539551,6.11343002319336
342,2178048127,-107.03031158447266,-47.48385620117188,-170.65606689453125,7.35598468780518,-6.45640134811401,-2.54564380645752,23.25442314147949,-20.50247383117676,2.26228165626526
343,2178064794,-107.04617309570312,-47.36006927490234,-170.27975463867188,7.92514181137085,-6.35499048233032,-2.24854946136475,18.17584609985352,-18.15127563476562,3.23731851577759
344,2178081461,-107.08769226074219,-47.21854019165039,-169.96652221679688,7.89251279830933,-6.30136966705322,-2.19238138198853,13.82167816162109,-16.04660034179688,4.98676872253418
345,2178098128,-107.15159606933594,-47.09399795532227,-169.64810180664062,7.50490045547485,-6.05257511138916,-2.25725603103638,12.67597961425781,-15.98001670837402,3.93188118934631
346,2178114795,-107.19845581054688,-47.00323104858398,-169.35168457031250,7.14090585708618,-5.84525394439697,-2.32378339767456,12.70789146423340,-14.55488395690918,2.23916125297546
347,2178131462,-107.24652862548828,-46.91451644897461,-169.00109863281250,7.01063632965088,-6.12041473388672,-2.22887396812439,14.99962139129639,-16.65609359741211,1.44491088390350
348,2178148129,-107.32977294921875,-46.81523132324219,-168.61791992187500,7.00741958618164,-6.31094264984131,-2.35824084281921,14.28634643554688,-18.14601707458496,1.63074433803558
349,2178164796,-107.46871948242188,-46.70127105712891,-168.21189880371094,7.09172677993774,-6.27775096893311,-2.31336998939514,11.91569423675537,-19.33565139770508,2.14511203765869
350,2178181463,-107.68230438232422,-46.57009887695312,-167.74353027343750,7.14999008178711,-6.21983146667480,-2.34428286552429,10.11526298522949,-22.13467979431152,2.28617501258850
351,2178198130,-107.94019317626953,-46.43503952026367,-167.24897766113281,7.12548446655273,-6.20090341567993,-2.34514141082764,8.55893039703369,-23.29208755493164,2.07527971267700
352,2178214797,-108.21186065673828,-46.31058120727539,-166.74914550781250,7.00693893432617,-6.33950757980347,-2.26499438285828,7.91608762741089,-23.35202789306641,1.28654778003693
353,2178231464,-108.42949676513672,-46.20963287353516,-166.21516418457031,6.91416501998901,-6.58012676239014,-2.38562917709351,12.59247207641602,-24.29477119445801,-0.60583162307739
354,2178248131,-108.61801910400391,-46.16577529907227,-165.73576354980469,6.65518474578857,-6.76745653152466,-2.35737466812134,11.94866180419922,-21.08184242248535,-3.22779560089111
355,2178264798,-108.82972717285156,-46.13678741455078,-165.35614013671875,6.85979890823364,-6.57253217697144,-1.93841636180878,6.22817659378052,-16.86906814575195,-2.81499242782593
356,2178281465,-109.03358459472656,-46.06838607788086,-165.07575988769531,7.36217975616455,-6.36149501800537,-2.49257302284241,2.39237499237061,-13.72996520996094,0.69845235347748
357,2178298132,-109.18359375000000,-45.98725128173828,-164.89721679687500,7.61605882644653,-6.37303256988525,-2.84219646453857,1.21566247940063,-9.98513984680176,2.76758790016174
358,2178314799,-109.29676055908203,-45.92961883544922,-164.79431152343750,7.47190141677856,-6.53963470458984,-2.59565639495850,0.15297830104828,-6.55537986755371,2.45434403419495
359,2178331466,-109.37701416015625,-45.90589141845703,-164.71308898925781,7.15164661407471,-6.58998966217041,-2.55056881904602,1.18712961673737,-5.03211498260498,0.82431286573410
360,2178348133,-109.40684509277344,-45.92574310302734,-164.67321777343750,6.84494543075562,-6.61004924774170,-2.66550803184509,2.43546700477600,-2.54179167747498,-1.07367157936096
361,2178364800,-109.38885498046875,-45.98418045043945,-164.67451477050781,6.71759510040283,-6.46336889266968,-2.60371208190918,3.53266382217407,-0.15298466384411,-2.68821954727173
362,2178381467,-109.35871887207031,-46.07850646972656,-164.69110107421875,6.63375329971313,-6.43617868423462,-2.58065128326416,3.59897518157959,1.16369390487671,-4.50934648513794
363,2178398134,-109.33510589599609,-46.19414520263672,-164.71777343750000,6.71698713302612,-6.48346138000488,-2.48365974426270,2.76991796493530,1.98260903358459,-5.57799863815308
364,2178414801,-109.29753112792969,-46.30619430541992,-164.74488830566406,6.89553022384644,-6.54865646362305,-2.48756384849548,3.58888316154480,1.91901230812073,-5.37232828140259
365,2178431468,-109.24275207519531,-46.42599868774414,-164.77847290039062,6.93635606765747,-6.59957218170166,-2.48098683357239,4.33653211593628,2.32105541229248,-5.72837066650391
366,2178448135,-109.18193817138672,-46.55028152465820,-164.81935119628906,7.08124065399170,-6.62350749969482,-2.49462461471558,4.37600088119507,2.68474292755127,-5.88871908187866
367,2178464802,-109.14117431640625,-46.67430496215820,-164.84342956542969,7.10799074172974,-6.66018486022949,-2.40129017829895,3.90115404129028,2.01710915565491,-6.10458278656006
368,2178481469,-109.08119201660156,-46.78778839111328,-164.84834289550781,7.17589712142944,-6.60936450958252,-2.31440663337708,5.89031410217285,1.05498099327087,-5.77200317382812
369,2178498136,-108.97042083740234,-46.89453887939453,-164.85334777832031,7.13827657699585,-6.50144577026367,-2.39692807197571,8.92826366424561,0.91924655437469,-5.39248704910278
370,2178514803,-108.80912780761719,-47.00855636596680,-164.88595581054688,6.96376800537109,-6.56292533874512,-2.33938765525818,10.75048160552979,2.11787056922913,-5.44492959976196
371,2178531470,-108.62625122070312,-47.12080383300781,-164.95100402832031,6.84447860717773,-6.63513851165771,-2.20212602615356,10.62111282348633,3.31600737571716,-4.93276500701904
372,2178548137,-108.45545196533203,-47.23019409179688,-165.01144409179688,6.83321189880371,-6.40815925598145,-2.10848975181580,10.08964729309082,3.05925250053406,-4.84820461273193
373,2178564804,-108.24599456787109,-47.33294677734375,-165.06529235839844,6.99654483795166,-6.50655889511108,-2.15265417098999,12.69428348541260,2.65673685073853,-4.57014131546021
374,2178581471,-107.98124694824219,-47.42537689208984,-165.08190917968750,7.09225225448608,-6.72233009338379,-2.38329553604126,17.64835357666016,1.00065720081329,-4.47168731689453
375,2178598138,-107.66062927246094,-47.51446533203125,-165.05857849121094,7.07580280303955,-6.89100837707520,-2.47154164314270,22.77067184448242,-0.62784522771835,-4.79159402847290
376,2178614805,-107.32120513916016,-47.59992599487305,-165.00233459472656,7.11460351943970,-6.85760450363159,-2.40344119071960,25.35507392883301,-1.99359476566315,-4.98827695846558
377,2178631472,-107.00411224365234,-47.67867279052734,-164.94499206542969,7.16832113265991,-6.71352148056030,-2.32394623756409,24.06653976440430,-2.18137407302856,-4.61432886123657
378,2178648139,-106.71475219726562,-47.74865341186523,-164.89337158203125,7.19300603866577,-6.42209959030151,-2.33692884445190,22.15375137329102,-2.13743495941162,-4.04125595092773
379,2178664806,-106.43251037597656,-47.81357574462891,-164.84046936035156,7.12873744964600,-6.20213270187378,-2.24908757209778,21.78598976135254,-2.29346776008606,-3.76155209541321
380,2178681473,-106.12595367431641,-47.86612319946289,-164.80158996582031,7.05744075775146,-6.39603900909424,-2.16140723228455,22.62446403503418,-1.97784197330475,-2.88733792304993
381,2178698140,-105.83563232421875,-47.92224502563477,-164.76110839843750,6.98059368133545,-6.62840890884399,-2.13693547248840,21.72185325622559,-1.99756336212158,-3.10704350471497
382,2178714807,-105.54898834228516,-47.98608016967773,-164.73484802246094,7.04362154006958,-6.74596691131592,-2.12116956710815,20.86734580993652,-1.33711290359497,-3.39600539207458
383,2178731474,-105.30734252929688,-48.02807998657227,-164.67878723144531,7.36357069015503,-6.65624713897705,-1.96930992603302,19.49939346313477,-2.85775375366211,-2.45291876792908
384,2178748141,-105.09698486328125,-48.07093429565430,-164.60232543945312,7.06213474273682,-6.47953891754150,-1.93141174316406,18.52903556823730,-3.64059329032898,-2.71152997016907
385,2178764808,-104.91192626953125,-48.11775588989258,-164.52040100097656,6.92541980743408,-6.55498266220093,-1.67623066902161,17.26238441467285,-3.80172300338745,-2.99414086341858
386,2178781475,-104.70284271240234,-48.15668106079102,-164.41572570800781,6.90955305099487,-6.49249315261841,-1.95544707775116,19.71610260009766,-4.81484937667847,-2.75818443298340
387,2178798142,-104.49295806884766,-48.16753387451172,-164.25672912597656,7.19486665725708,-6.62421369552612,-2.03384661674500,22.18910026550293,-7.34551858901978,-1.66416275501251
388,2178814809,-104.34164428710938,-48.16618728637695,-164.01152038574219,7.16935920715332,-6.51793241500854,-1.85171663761139,22.53955078125000,-10.88471698760986,-1.80080687999725
389,2178831476,-104.29904174804688,-48.16190719604492,-163.67735290527344,7.04802465438843,-6.26840019226074,-1.62749075889587,19.99474525451660,-14.38136959075928,-2.49655222892761
390,2178848143,-104.37078094482422,-48.14443969726562,-163.29940795898438,7.24804353713989,-6.45375728607178,-1.60795569419861,15.08205699920654,-16.27665328979492,-2.16718387603760
391,2178864810,-104.46453094482422,-48.10425949096680,-162.96145629882812,7.48403120040894,-6.55187702178955,-1.69607388973236,11.97244834899902,-15.06932830810547,-0.47515460848808
392,2178881477,-104.49124908447266,-48.04150772094727,-162.70484924316406,7.64138269424438,-6.61302614212036,-1.90635693073273,12.34823417663574,-12.26665115356445,1.63382923603058
393,2178898144,-104.49439239501953,-47.97645568847656,-162.48394775390625,7.38971519470215,-6.24873065948486,-2.10435771942139,12.15900516510010,-10.92102050781250,2.12056040763855
394,2178914811,-104.50823211669922,-47.91876220703125,-162.25971984863281,7.10719442367554,-6.01841974258423,-2.01052570343018,11.65951919555664,-10.94943809509277,1.65381979942322
395,2178931478,-104.58585357666016,-47.86490631103516,-162.00173950195312,7.15215873718262,-6.18504762649536,-1.71035993099213,9.31891345977783,-12.21739482879639,1.08078634738922
396,2178948145,-104.75477600097656,-47.81269836425781,-161.70599365234375,7.36618566513062,-6.33904266357422,-1.56671547889709,5.51484727859497,-13.67751026153564,0.57251465320587
397,2178964812,-104.96311187744141,-47.75988388061523,-161.40209960937500,7.67066717147827,-6.49843549728394,-1.63502275943756,3.50351929664612,-14.01709938049316,0.47893863916397
398,2178981479,-105.17030334472656,-47.72385025024414,-161.12397766113281,7.60185813903809,-6.41015577316284,-1.73755502700806,2.41750097274780,-12.76409721374512,-0.27185335755348
399,2178998146,-105.35151672363281,-47.70624923706055,-160.86143493652344,7.43936157226562,-6.55656099319458,-1.84394550323486,3.27287554740906,-11.86186218261719,-1.21039283275604
400,2179014813,-105.50248718261719,-47.69868850708008,-160.60098266601562,6.99429416656494,-6.82854509353638,-1.67906904220581,4.99200057983398,-11.62436771392822,-1.80079138278961
401,2179031480,-105.65409088134766,-47.68957138061523,-160.31901550292969,6.77297163009644,-7.01775836944580,-1.76340615749359,5.90924406051636,-12.47818279266357,-1.97497093677521
402,2179048147,-105.81898498535156,-47.68755722045898,-159.99838256835938,6.81176471710205,-6.93870925903320,-1.94975543022156,6.82365846633911,-13.86218166351318,-2.84043812751770
403,2179064814,-105.95451354980469,-47.69829559326172,-159.67276000976562,7.02900695800781,-6.80064487457275,-2.12566900253296,8.80606937408447,-13.83531284332275,-3.66790819168091
404,2179081481,-106.04080200195312,-47.71957397460938,-159.36248779296875,7.26250219345093,-6.81040573120117,-2.18927550315857,11.08611488342285,-13.05563831329346,-4.12979555130005
405,2179098148,-106.09489440917969,-47.73857116699219,-159.09397888183594,7.37557029724121,-6.78089714050293,-2.16179275512695,11.16753768920898,-11.46284580230713,-3.54788732528687
406,2179114815,-106.11383056640625,-47.74216079711914,-158.86630249023438,7.41576671600342,-6.66033458709717,-2.17631840705872,11.46274948120117,-10.13036918640137,-2.20881581306458
407,2179131482,-106.09241485595703,-47.72978973388672,-158.67628479003906,7.32326793670654,-6.52561426162720,-2.12166690826416,12.21513366699219,-8.93986320495605,-0.86764359474182
408,2179148149,-106.04499816894531,-47.70225906372070,-158.50843811035156,7.32902526855469,-6.51154804229736,-1.95192074775696,12.78853988647461,-8.33047294616699,0.25664582848549
409,2179164816,-105.95766448974609,-47.67641448974609,-158.36338806152344,7.39790868759155,-6.57772922515869,-1.92877674102783,14.16495513916016,-7.42197751998901,0.42123320698738
410,2179181483,-105.81668090820312,-47.64966583251953,-158.24441528320312,7.52107000350952,-6.63404655456543,-1.96790456771851,16.22056961059570,-6.42983102798462,0.77011704444885
411,2179198150,-105.65316009521484,-47.62021255493164,-158.13209533691406,7.53289985656738,-6.67208814620972,-1.90664911270142,17.28314399719238,-6.21450567245483,1.01284897327423
412,2179214817,-105.51632690429688,-47.58546447753906,-158.00744628906250,7.30512619018555,-6.60431718826294,-2.02395176887512,16.22265815734863,-6.78337669372559,1.19601821899414
413,2179231484,-105.41296386718750,-47.54309463500977,-157.86361694335938,7.31746721267700,-6.54125165939331,-2.06488585472107,15.06037902832031,-7.65546464920044,1.43848121166229
414,2179248151,-105.32030487060547,-47.50035476684570,-157.73162841796875,7.25424766540527,-6.66348791122437,-1.92912805080414,13.88662242889404,-7.20302772521973,1.59758710861206
415,2179264818,-105.19051361083984,-47.46595764160156,-157.64257812500000,7.17695903778076,-6.64871549606323,-1.92895150184631,14.21187591552734,-5.39471721649170,1.58188629150391
416,2179281485,-105.10561370849609,-47.41762542724609,-157.52200317382812,7.38185596466064,-6.43006610870361,-2.02988052368164,12.91086483001709,-6.85293912887573,2.05940985679626
417,2179298152,-105.02143096923828,-47.34597778320312,-157.39520263671875,7.31172943115234,-6.44528341293335,-2.12997102737427,13.13692569732666,-7.45583820343018,3.35282707214355
418,2179314819,-104.93040466308594,-47.27552413940430,-157.26478576660156,7.27034425735474,-6.60646724700928,-1.81910145282745,13.70158290863037,-7.58452796936035,3.25069594383240
419,2179331486,-104.87739562988281,-47.22439956665039,-157.10047912597656,7.27805519104004,-6.75779819488525,-1.74887549877167,12.90766429901123,-8.62712001800537,1.78153741359711
420,2179348153,-104.86599731445312,-47.19055938720703,-156.91635131835938,7.34570646286011,-6.85651206970215,-1.84221160411835,11.27468681335449,-9.14641761779785,0.57485824823380
421,2179364820,-104.87117767333984,-47.15905380249023,-156.73696899414062,7.23221302032471,-6.64123058319092,-1.91305553913116,10.07241153717041,-8.92723560333252,0.48650717735291
422,2179381487,-104.88166046142578,-47.12384033203125,-156.57003784179688,7.18850946426392,-6.47282934188843,-1.96046710014343,9.20104026794434,-8.49565982818604,0.82780927419662
423,2179398154,-104.88144683837891,-47.10110473632812,-156.41625976562500,7.24300813674927,-6.53019666671753,-2.02192759513855,9.25989723205566,-7.78851795196533,0.24093233048916
424,2179414821,-104.85420989990234,-47.09552764892578,-156.28440856933594,7.36808538436890,-6.66368198394775,-2.02869462966919,9.91481494903564,-6.65940713882446,-0.52374154329300
425,2179431488,-104.82694244384766,-47.10050201416016,-156.16516113281250,7.37319612503052,-6.62661218643188,-1.96249032020569,9.36001682281494,-6.00075006484985,-1.00022757053375
426,2179448155,-104.83251953125000,-47.10483551025391,-156.04341125488281,7.22417306900024,-6.42573642730713,-1.93190777301788,7.50874280929565,-6.11160230636597,-0.99131423234940
427,2179464822,-104.86907196044922,-47.10964584350586,-155.92010498046875,7.21704149246216,-6.49595260620117,-1.86659419536591,5.71429061889648,-6.16267299652100,-1.03436899185181
428,2179481489,-104.88467407226562,-47.10809707641602,-155.80543518066406,7.37641859054565,-6.53860139846802,-1.81086981296539,6.58841371536255,-5.91912174224854,-0.57810437679291
429,2179498156,-104.86904907226562,-47.10574722290039,-155.70880126953125,7.47001791000366,-6.67050361633301,-1.82701480388641,7.67567348480225,-5.22143220901489,-0.34376093745232
430,2179514823,-104.82424163818359,-47.10750961303711,-155.62220764160156,7.28099918365479,-6.54024982452393,-1.85438609123230,8.98085784912109,-4.76432180404663,-0.47272092103958
431,2179531490,-104.77979278564453,-47.10918045043945,-155.53535461425781,7.12363290786743,-6.43774223327637,-1.91564619541168,8.96629810333252,-4.77603960037231,-0.46656104922295
432,2179548157,-104.77502441406250,-47.10239791870117,-155.44042968750000,7.23493385314941,-6.45303583145142,-1.88551771640778,6.94709539413452,-5.22387838363647,-0.06135524436831
433,2179564824,-104.77912139892578,-47.08826065063477,-155.34851074218750,7.35112380981445,-6.53532981872559,-1.88944613933563,6.27382516860962,-5.21806287765503,0.39829674363136
434,2179581491,-104.77886199951172,-47.07585525512695,-155.25720214843750,7.35303020477295,-6.51158666610718,-1.89852893352509,6.51461124420166,-5.17239665985107,0.30163446068764
435,2179598158,-104.78260040283203,-47.06364059448242,-155.15600585937500,7.12039661407471,-6.42566442489624,-1.92841780185699,6.70768022537231,-5.55953264236450,0.18791402876377
436,2179614825,-104.81537628173828,-47.04360961914062,-155.00883483886719,7.10681056976318,-6.45413255691528,-1.86673772335052,6.98460435867310,-7.49970722198486,0.15862590074539
437,2179631492,-104.88091278076172,-47.01981353759766,-154.83848571777344,7.14662551879883,-6.56035470962524,-1.85157561302185,6.03158140182495,-8.47185134887695,0.12938900291920
438,2179648159,-104.92948150634766,-46.99306869506836,-154.69088745117188,7.27829265594482,-6.58472776412964,-1.82857978343964,6.04707813262939,-7.62297010421753,0.53054809570312
439,2179664826,-104.96380615234375,-46.96747970581055,-154.56933593750000,7.24736928939819,-6.50580453872681,-1.88713419437408,5.75498914718628,-6.57641983032227,0.73497569561005
440,2179681493,-104.99440765380859,-46.94271087646484,-154.45068359375000,7.16713619232178,-6.42845773696899,-1.91296935081482,5.85116529464722,-6.45337772369385,0.71275681257248
441,2179698160,-105.04071044921875,-46.91691970825195,-154.32527160644531,7.14280223846436,-6.44145774841309,-1.92028379440308,5.20079421997070,-6.73671770095825,0.69735068082809
442,2179714827,-105.08753204345703,-46.89978027343750,-154.21669006347656,7.17113494873047,-6.44438219070435,-2.01437568664551,4.43015956878662,-5.93913841247559,0.36991789937019
443,2179731494,-105.13510894775391,-46.87592315673828,-154.10054016113281,7.36531782150269,-6.42452001571655,-1.94195640087128,4.71544599533081,-6.34676408767700,0.67447853088379
444,2179748161,-105.15229797363281,-46.86724853515625,-154.00833129882812,7.19859123229980,-6.51421117782593,-2.02121353149414,5.49558353424072,-5.16293191909790,0.04644223675132
445,2179764828,-105.15163421630859,-46.86785888671875,-153.98933410644531,7.01834297180176,-6.57025527954102,-1.71706175804138,3.36263418197632,-2.11685156822205,0.29373288154602
446,2179781495,-105.16370391845703,-46.86591339111328,-153.91511535644531,7.12246131896973,-6.51151943206787,-1.90528249740601,5.00308990478516,-4.34437561035156,-0.14715780317783
447,2179798162,-105.14231872558594,-46.84531784057617,-153.85209655761719,7.13799619674683,-6.54996633529663,-2.29162383079529,6.52351140975952,-4.19112253189087,1.05170261859894
448,2179814829,-105.12631225585938,-46.80245971679688,-153.84643554687500,7.15950822830200,-6.64211845397949,-1.74046719074249,3.68828630447388,-2.26977205276489,2.95330476760864
449,2179831496,-105.21023559570312,-46.73629379272461,-153.76155090332031,7.31519031524658,-6.42331027984619,-1.66800832748413,1.15816164016724,-5.78478288650513,3.45274019241333
450,2179848163,-105.27874755859375,-46.65200424194336,-153.67031860351562,7.30437660217285,-6.38998842239380,-1.95290565490723,2.34933161735535,-6.32813072204590,4.42616271972656
451,2179864830,-105.30236816406250,-46.55918121337891,-153.60066223144531,7.16916656494141,-6.51039695739746,-1.95762693881989,4.10539054870605,-5.61466455459595,5.14786624908447
452,2179881497,-105.29727172851562,-46.48091125488281,-153.51483154296875,7.04186725616455,-6.63884878158569,-1.97057676315308,6.52522850036621,-6.03294610977173,4.12803268432617
453,2179898164,-105.29572296142578,-46.42951583862305,-153.41700744628906,6.91994714736938,-6.60099315643311,-2.05847215652466,6.82629299163818,-6.08940935134888,2.44126915931702
454,2179914831,-105.32209777832031,-46.40019989013672,-153.29447937011719,6.90918684005737,-6.64397478103638,-1.97076821327209,6.22412443161011,-6.72738170623779,0.89208406209946
455,2179931498,-105.36435699462891,-46.39324188232422,-153.13990783691406,6.99132061004639,-6.71758794784546,-1.88199591636658,6.66249847412109,-7.65693235397339,-0.75789284706116
456,2179948165,-105.41879272460938,-46.40534591674805,-152.94952392578125,6.98094320297241,-6.76972675323486,-1.91435623168945,7.48867607116699,-8.77638721466064,-2.25933551788330
457,2179964832,-105.46343231201172,-46.42985534667969,-152.76440429687500,6.97481155395508,-6.88206720352173,-1.93059790134430,7.84238815307617,-8.36594390869141,-2.92539405822754
458,2179981499,-105.49859619140625,-46.45395278930664,-152.59150695800781,7.04670524597168,-6.75128221511841,-1.91321074962616,7.88195991516113,-7.87990379333496,-2.77284479141235
459,2179998166,-105.52037048339844,-46.47727203369141,-152.42587280273438,7.05396699905396,-6.68369197845459,-2.04883027076721,8.37711715698242,-7.59680700302124,-2.64958381652832
460,2180014833,-105.49149322509766,-46.51131820678711,-152.30491638183594,7.03681039810181,-6.58966302871704,-2.04161787033081,9.47282981872559,-5.64682149887085,-2.77534246444702
461,2180031500,-105.48093414306641,-46.55199432373047,-152.19738769531250,7.03620767593384,-6.56423282623291,-1.98815310001373,7.79419803619385,-5.00407075881958,-3.00941658020020
462,2180048167,-105.36141967773438,-46.60804748535156,-152.10404968261719,7.11742162704468,-6.82555198669434,-1.97193491458893,13.72072792053223,-4.19970512390137,-3.73964953422546
463,2180064834,-105.38820648193359,-46.65040588378906,-151.99798583984375,7.03488254547119,-6.78432226181030,-2.00384879112244,5.49656963348389,-4.91830539703369,-3.08116984367371
464,2180081501,-105.44571685791016,-46.68125534057617,-151.88226318359375,7.01687860488892,-6.67367267608643,-2.02731394767761,4.07444906234741,-5.47520112991333,-2.52424693107605
465,2180098168,-105.46219635009766,-46.69374465942383,-151.78428649902344,7.06390190124512,-6.63247394561768,-2.10700631141663,5.76324892044067,-5.06181287765503,-1.27031326293945
466,2180114835,-105.42546081542969,-46.69895553588867,-151.71209716796875,7.00646114349365,-6.63316869735718,-2.07608389854431,7.82899093627930,-4.15614795684814,-0.56687319278717
467,2180131502,-105.39215850830078,-46.69544982910156,-151.62095642089844,6.98634147644043,-6.63230085372925,-1.86734485626221,8.45718002319336,-5.05129909515381,-0.27063661813736
468,2180148169,-105.42707061767578,-46.67640304565430,-151.46972656250000,7.00222635269165,-6.63400840759277,-1.81291258335114,6.98706340789795,-7.68619489669800,-0.02974915876985
469,2180164836,-105.50178527832031,-46.66266632080078,-151.27673339843750,7.00735092163086,-6.64602708816528,-1.83562433719635,6.41636133193970,-9.25474357604980,-0.80170345306396
470,2180181503,-105.58757019042969,-46.64980697631836,-151.06056213378906,7.08212852478027,-6.71459817886353,-2.01342058181763,6.75998163223267,-10.16254711151123,-1.12022304534912
471,2180198170,-105.62229156494141,-46.64722824096680,-150.87687683105469,7.04784107208252,-6.66954660415649,-1.99178349971771,8.40992736816406,-8.70978260040283,-1.36581063270569
472,2180214837,-105.68270111083984,-46.65462875366211,-150.67712402343750,6.95546865463257,-6.61922645568848,-1.98328888416290,7.56782054901123,-9.18194007873535,-2.12584233283997
473,2180231504,-105.83020019531250,-46.65473556518555,-150.44874572753906,6.88842344284058,-6.52194690704346,-1.98059737682343,3.59150981903076,-10.42998123168945,-2.04106402397156
474,2180248171,-105.95742797851562,-46.64193344116211,-150.17654418945312,6.94626331329346,-6.84102439880371,-2.23006439208984,6.71581411361694,-12.37381076812744,-1.81163859367371
475,2180264838,-106.04010772705078,-46.65027618408203,-150.02546691894531,6.86296510696411,-6.89265918731689,-1.86907553672791,4.10473680496216,-7.22444725036621,-1.67636430263519
476,2180281505,-106.12561035156250,-46.63354110717773,-149.82095336914062,7.12148380279541,-6.69232702255249,-1.80985820293427,6.27345609664917,-9.75268077850342,-0.85493946075439
477,2180298172,-106.17574310302734,-46.60126113891602,-149.61476135253906,7.04981851577759,-6.56660318374634,-2.44553232192993,8.45507049560547,-10.08320045471191,0.01312011200935
478,2180314839,-106.21398162841797,-46.58935546875000,-149.49484252929688,6.84511184692383,-6.56926536560059,-2.23959755897522,5.40989685058594,-6.32785034179688,-0.17661242187023
479,2180331506,-106.39794921875000,-46.57601165771484,-149.24121093750000,7.13509988784790,-6.67064476013184,-1.86532509326935,2.48477244377136,-11.63996696472168,-1.65217363834381
480,2180348173,-106.67202758789062,-46.54683303833008,-148.90873718261719,7.21607303619385,-6.74283647537231,-2.11875915527344,0.51425862312317,-15.02767658233643,-1.71113479137421
481,2180364840,-106.86927795410156,-46.53692245483398,-148.65747070312500,7.07345724105835,-6.65522527694702,-2.15079188346863,1.57776224613190,-11.47923183441162,-1.90906906127930
482,2180381507,-106.90074157714844,-46.54261398315430,-148.50106811523438,7.04370546340942,-6.60010290145874,-2.13365030288696,7.39961957931519,-7.45780611038208,-1.68932461738586
483,2180398174,-106.88963317871094,-46.53993225097656,-148.34933471679688,7.11669397354126,-6.60666036605835,-2.16679263114929,9.74236392974854,-7.41662168502808,-1.15156018733978
484,2180414841,-106.88972473144531,-46.54237747192383,-148.19844055175781,7.11829662322998,-6.69039440155029,-2.11588001251221,9.04222774505615,-7.30030107498169,-1.43776941299438
485,2180431508,-106.89118194580078,-46.53951263427734,-148.03666687011719,7.11705875396729,-6.79924917221069,-2.03921723365784,9.42808532714844,-7.82006025314331,-1.26321899890900
486,2180448175,-106.91049194335938,-46.52768325805664,-147.85215759277344,7.15012741088867,-6.73829317092896,-2.10651135444641,9.34178352355957,-8.87631702423096,-1.02236986160278
487,2180464842,-106.93939971923828,-46.51516342163086,-147.65905761718750,7.08636569976807,-6.69074869155884,-2.19204998016357,9.14380836486816,-9.22790241241455,-1.09117841720581
488,2180481509,-106.90438842773438,-46.50562286376953,-147.46681213378906,7.09106540679932,-6.66669034957886,-2.05868577957153,12.94182109832764,-9.14315223693848,-1.25294876098633
489,2180498176,-106.86212158203125,-46.49904632568359,-147.25466918945312,7.05619621276855,-6.74060153961182,-2.20127773284912,14.23895168304443,-9.88000488281250,-1.65661823749542
490,2180514843,-106.85851287841797,-46.49431991577148,-147.05450439453125,7.04608011245728,-6.69596910476685,-2.20510673522949,11.39510536193848,-9.37913513183594,-1.61809635162354
491,2180531510,-106.82142639160156,-46.48918533325195,-146.88972473144531,7.09345960617065,-6.61646509170532,-2.09504079818726,11.86409759521484,-7.98940038681030,-1.16887462139130
492,2180548177,-106.78040313720703,-46.47915267944336,-146.72036743164062,7.13652229309082,-6.58460140228271,-2.09742403030396,12.29791545867920,-8.25221347808838,-0.93656748533249
493,2180564844,-106.79702758789062,-46.45967102050781,-146.53501892089844,7.18900346755981,-6.62539529800415,-2.06598687171936,9.53392791748047,-9.05382442474365,-0.58761966228485
494,2180581511,-106.84533691406250,-46.42782974243164,-146.32646179199219,7.23415279388428,-6.65187740325928,-2.01813125610352,8.64003276824951,-10.19035053253174,-0.16082222759724
495,2180598178,-106.91123199462891,-46.39461135864258,-146.09538269042969,7.16705036163330,-6.69412851333618,-2.07563543319702,8.56361865997314,-11.11240959167480,-0.36280411481857
496,2180614845,-106.99798583984375,-46.36488342285156,-145.85549926757812,7.14045381546021,-6.70026731491089,-2.11548662185669,7.67922353744507,-11.40290832519531,-0.68296301364899
497,2180631512,-107.10130310058594,-46.33870315551758,-145.60134887695312,7.11969470977783,-6.67061424255371,-2.09012842178345,7.30438089370728,-11.90870857238770,-1.07765507698059
498,2180648179,-107.20040893554688,-46.30712127685547,-145.34036254882812,7.17518615722656,-6.64710807800293,-2.11219501495361,7.84814023971558,-12.28022193908691,-0.87352162599564
499,2180664846,-107.28043365478516,-46.28120422363281,-145.08334350585938,7.14936113357544,-6.66882085800171,-2.11256170272827,8.81387996673584,-12.02485084533691,-1.16989934444427
500,2180681513,-107.34991455078125,-46.26382064819336,-144.83666992187500,7.20344400405884,-6.70328998565674,-2.19671511650085,8.99227237701416,-11.46662139892578,-1.54406273365021
501,2180698180,-107.39781951904297,-46.25708007812500,-144.62922668457031,7.25003957748413,-6.68045330047607,-2.19335961341858,8.57971286773682,-9.71895980834961,-1.67826008796692
502,2180714847,-107.40670013427734,-46.25995635986328,-144.44610595703125,7.31426620483398,-6.63569355010986,-2.11324048042297,9.87035369873047,-8.58191299438477,-1.93218493461609
503,2180731514,-107.41815948486328,-46.28507232666016,-144.28100585937500,7.21934890747070,-6.70225095748901,-2.15673041343689,8.93596076965332,-7.47070217132568,-2.97991085052490
504,2180748181,-107.39165496826172,-46.31837463378906,-144.10244750976562,7.42974662780762,-6.61916589736938,-2.06517887115479,11.80556106567383,-7.85262823104858,-3.61865401268005
505,2180764848,-107.26508331298828,-46.39423751831055,-143.96112060546875,7.17942142486572,-6.58160114288330,-2.10674929618835,16.19640541076660,-5.61940622329712,-5.58390760421753
506,2180781515,-107.07230377197266,-46.48546600341797,-143.89486694335938,7.18980169296265,-6.55193424224854,-1.72923660278320,16.90760612487793,-2.39185714721680,-5.53334760665894
507,2180798182,-106.85256195068359,-46.53259277343750,-143.76470947265625,7.31603670120239,-6.49313688278198,-2.24462199211121,21.30845260620117,-5.70526456832886,-3.76749396324158
508,2180814849,-106.59232330322266,-46.56225204467773,-143.73445129394531,7.39588022232056,-6.63773679733276,-2.34148025512695,19.39528465270996,-2.07245397567749,-1.55804812908173
509,2180831516,-106.38317871093750,-46.59881591796875,-143.70707702636719,7.35176324844360,-6.66073226928711,-1.92155587673187,16.20346069335938,-1.84895682334900,-1.91981446743011
510,2180848183,-106.24341583251953,-46.65034103393555,-143.62155151367188,7.26398658752441,-6.49285411834717,-1.88953399658203,14.57075023651123,-3.89768004417419,-3.44916272163391
511,2180864850,-106.08468627929688,-46.69472503662109,-143.52935791015625,7.28379774093628,-6.59517908096313,-2.02172279357910,16.00754928588867,-4.29279518127441,-3.10914111137390
512,2180881517,-105.89185333251953,-46.74152755737305,-143.44622802734375,7.26802968978882,-6.59504365921021,-1.93421614170074,17.65948295593262,-3.90507030487061,-3.13579177856445
513,2180898184,-105.65584564208984,-46.78789901733398,-143.39657592773438,7.30630064010620,-6.54020929336548,-1.88830685615540,18.79505157470703,-2.59973049163818,-2.72644925117493
514,2180914851,-105.44732666015625,-46.82777023315430,-143.37181091308594,7.32170104980469,-6.51814889907837,-1.94517230987549,16.05405998229980,-1.72996008396149,-2.07053256034851
515,2180931518,-105.26971435546875,-46.87005615234375,-143.36863708496094,7.29216861724854,-6.54194688796997,-2.01813817024231,13.25303840637207,-0.84711498022079,-1.97538077831268
516,2180948185,-105.08787536621094,-46.91936874389648,-143.37765502929688,7.30876398086548,-6.57973432540894,-1.95296561717987,12.97470378875732,-0.26003310084343,-2.25245928764343
517,2180964852,-104.93260955810547,-46.96571350097656,-143.39099121093750,7.27586269378662,-6.57037496566772,-1.90665912628174,11.19035339355469,-0.14492952823639,-2.03779840469360
518,2180981519,-104.79101562500000,-47.00723266601562,-143.40664672851562,7.32000732421875,-6.55687189102173,-1.78303599357605,10.26363372802734,-0.13529914617538,-1.73549163341522
519,2180998186,-104.64609527587891,-47.04758071899414,-143.41268920898438,7.34660959243774,-6.56557512283325,-1.76684641838074,10.89168262481689,-0.54000556468964,-1.77160525321960
520,2181014853,-104.49554443359375,-47.09802246093750,-143.42172241210938,7.29943656921387,-6.59177494049072,-1.78923165798187,11.09399890899658,-0.28246974945068,-2.32924556732178
521,2181031520,-104.35422515869141,-47.15032577514648,-143.43351745605469,7.35838222503662,-6.55798864364624,-1.68069839477539,10.42262458801270,-0.14647908508778,-2.41361379623413
522,2181048187,-104.22593688964844,-47.20000076293945,-143.44677734375000,7.36081981658936,-6.54774236679077,-1.70581197738647,9.56868267059326,-0.13483808934689,-2.24588847160339
523,2181064854,-104.10174560546875,-47.25088119506836,-143.45796203613281,7.32730102539062,-6.50235080718994,-1.72358119487762,9.41699218750000,-0.20815446972847,-2.34066820144653
524,2181081521,-103.99121093750000,-47.30394744873047,-143.45848083496094,7.25625228881836,-6.44747066497803,-1.76917409896851,9.06881237030029,-0.60282057523727,-2.57562661170959
525,2181098188,-103.89651489257812,-47.35489273071289,-143.44506835937500,7.23264551162720,-6.47754907608032,-1.79526245594025,8.72726631164551,-1.18557369709015,-2.59027695655823
526,2181114855,-103.81834411621094,-47.40599060058594,-143.42451477050781,7.25394916534424,-6.51812076568604,-1.75911331176758,8.04817199707031,-1.46974670886993,-2.66635942459106
527,2181131522,-103.75479888916016,-47.45094680786133,-143.40510559082031,7.30199050903320,-6.53970098495483,-1.70903539657593,7.12843179702759,-1.51792407035828,-2.29809975624084
528,2181148189,-103.69700622558594,-47.49148178100586,-143.39138793945312,7.36776494979858,-6.51299524307251,-1.67073142528534,6.53138732910156,-1.35825479030609,-1.98461353778839
529,2181164856,-103.63039398193359,-47.53081512451172,-143.38406372070312,7.33877038955688,-6.48188161849976,-1.67642903327942,6.77041721343994,-1.12785542011261,-1.85373210906982
530,2181181523,-103.55792236328125,-47.57343673706055,-143.37261962890625,7.25893211364746,-6.47421836853027,-1.68423950672150,7.31276512145996,-1.24408578872681,-2.08468174934387
531,2181198190,-103.47811126708984,-47.62248229980469,-143.35142517089844,7.22832775115967,-6.47593641281128,-1.66329681873322,8.18438053131104,-1.54115509986877,-2.55270338058472
532,2181214857,-103.39369964599609,-47.67408752441406,-143.32044982910156,7.26982212066650,-6.50562047958374,-1.64904916286469,8.89319801330566,-1.89402103424072,-2.79190015792847
533,2181231524,-103.31642150878906,-47.72182083129883,-143.28361511230469,7.27543210983276,-6.52710866928101,-1.62428104877472,8.72930240631104,-2.18630051612854,-2.62050008773804
534,2181248191,-103.24824523925781,-47.76623153686523,-143.23855590820312,7.28441381454468,-6.45220565795898,-1.74346852302551,8.55129432678223,-2.55619955062866,-2.50199031829834
535,2181264858,-103.17962646484375,-47.81283950805664,-143.19859313964844,7.32005214691162,-6.59046888351440,-1.70000064373016,8.34766101837158,-2.32474994659424,-2.58122253417969
536,2181281525,-103.07958984375000,-47.87402725219727,-143.20350646972656,7.19026327133179,-6.60279130935669,-1.49618744850159,8.24038124084473,-0.37189644575119,-3.01867461204529
537,2181298192,-102.97765350341797,-47.93595123291016,-143.20770263671875,7.13535451889038,-6.40654897689819,-1.71721971035004,8.37565517425537,-0.39000466465950,-3.07151389122009
538,2181314859,-102.91368865966797,-47.97434997558594,-143.16339111328125,7.34578371047974,-6.32660913467407,-1.82855236530304,8.26518726348877,-2.61518502235413,-2.13375592231750
539,2181331526,-102.85765075683594,-48.00056838989258,-143.09336853027344,7.24617624282837,-6.48519039154053,-1.55876851081848,8.94258022308350,-3.78614711761475,-1.65064930915833
540,2181348193,-102.83259582519531,-48.03706359863281,-143.00074768066406,7.21445846557617,-6.55946636199951,-1.37341856956482,8.08565616607666,-4.53407621383667,-2.45187854766846
541,2181364860,-102.83513641357422,-48.08574295043945,-142.89172363281250,7.25863122940063,-6.60624217987061,-1.55572569370270,7.16089677810669,-5.01206111907959,-3.30884170532227
542,2181381527,-102.81647491455078,-48.14241409301758,-142.80900573730469,7.24751377105713,-6.48994159698486,-1.60121107101440,7.26624155044556,-3.87182164192200,-3.54125118255615
543,2181398194,-102.77226257324219,-48.19699859619141,-142.74253845214844,7.20849609375000,-6.42756986618042,-1.72803461551666,8.07612800598145,-3.26729726791382,-3.27218961715698
544,2181414861,-102.71212768554688,-48.25527191162109,-142.67579650878906,7.15623331069946,-6.49832010269165,-1.78194069862366,9.04933452606201,-3.22763657569885,-3.49062776565552
545,2181431528,-102.65447998046875,-48.31672286987305,-142.60783386230469,7.20504426956177,-6.45597553253174,-1.66228306293488,8.95356750488281,-3.23401403427124,-3.68265914916992
546,2181448195,-102.62000274658203,-48.37916564941406,-142.52474975585938,7.23791933059692,-6.44294643402100,-1.61543619632721,8.24135589599609,-3.80813574790955,-3.87065577507019
547,2181464862,-102.58753967285156,-48.44635772705078,-142.43666076660156,7.21574497222900,-6.46211385726929,-1.63459682464600,8.35063362121582,-3.93960618972778,-4.19207048416138
548,2181481529,-102.55769348144531,-48.52040863037109,-142.33734130859375,7.23949289321899,-6.47019577026367,-1.49431228637695,8.70558738708496,-4.28635120391846,-4.68589639663696
549,2181498196,-102.51838684082031,-48.59582138061523,-142.22993469238281,7.24264001846313,-6.41616392135620,-1.45466828346252,9.64212894439697,-4.57792615890503,-4.83633279800415
550,2181514863,-102.47054290771484,-48.67511749267578,-142.12217712402344,7.18724775314331,-6.37166547775269,-1.44844865798950,10.17445087432861,-4.54197788238525,-5.06178855895996
551,2181531530,-102.41710662841797,-48.75219726562500,-142.01408386230469,7.23195457458496,-6.37181663513184,-1.50679469108582,10.52800846099854,-4.58084630966187,-4.93015241622925
552,2181548197,-102.36422729492188,-48.82409667968750,-141.90795898437500,7.27071046829224,-6.41368246078491,-1.64907181262970,10.41358470916748,-4.57263755798340,-4.60601091384888
553,2181564864,-102.33153533935547,-48.89100646972656,-141.78477478027344,7.27820920944214,-6.42063331604004,-1.58439886569977,9.98020458221436,-5.29433965682983,-4.45474195480347
554,2181581531,-102.32332611083984,-48.95513534545898,-141.64006042480469,7.25543928146362,-6.40507221221924,-1.53615331649780,9.49124431610107,-6.15312099456787,-4.47131395339966
555,2181598198,-102.33597564697266,-49.00982284545898,-141.47834777832031,7.24403095245361,-6.36998605728149,-1.52552878856659,9.01235008239746,-6.92120742797852,-4.05996036529541
556,2181614865,-102.35724639892578,-49.05432891845703,-141.30261230468750,7.22739028930664,-6.35967874526978,-1.49113678932190,9.13470363616943,-7.57878923416138,-3.58072161674500
557,2181631532,-102.37387847900391,-49.09506225585938,-141.12464904785156,7.26876354217529,-6.37810802459717,-1.51908993721008,9.51929092407227,-7.70719766616821,-3.38044261932373
558,2181648199,-102.40609741210938,-49.13505935668945,-140.94552612304688,7.35889101028442,-6.44471406936646,-1.42187845706940,8.63968658447266,-7.75529813766479,-3.34902834892273
559,2181664866,-102.48298645019531,-49.17039871215820,-140.75434875488281,7.34672164916992,-6.39435195922852,-1.36853253841400,6.51879978179932,-8.27061271667480,-3.18199515342712
560,2181681533,-102.58226776123047,-49.19859313964844,-140.56076049804688,7.22828340530396,-6.28898763656616,-1.38720381259918,5.28477907180786,-8.44025802612305,-2.79498672485352
561,2181698200,-102.65855407714844,-49.23081207275391,-140.37438964843750,7.36653518676758,-6.41937446594238,-1.63424336910248,6.34120082855225,-8.10491085052490,-2.97975707054138
562,2181714867,-102.67589569091797,-49.27502822875977,-140.21456909179688,7.52303647994995,-6.62454748153687,-1.68956041336060,8.67423820495605,-6.92481994628906,-3.45543670654297
563,2181731534,-102.65565490722656,-49.31682205200195,-140.08235168457031,7.44034528732300,-6.56837892532349,-1.68515717983246,9.67986965179443,-5.89993906021118,-3.07805919647217
564,2181748201,-102.63901519775391,-49.35281372070312,-139.94177246093750,7.17822360992432,-6.38798570632935,-1.82867717742920,9.84400939941406,-6.29132699966431,-2.80765271186829
565,2181764868,-102.65727996826172,-49.38791656494141,-139.77603149414062,7.11168050765991,-6.43025684356689,-1.60866510868073,8.90243434906006,-7.25439119338989,-2.97193241119385
566,2181781535,-102.65026092529297,-49.43528366088867,-139.66085815429688,7.09682178497314,-6.44578742980957,-1.49369716644287,8.12325572967529,-5.16501998901367,-3.25739860534668
567,2181798202,-102.63403320312500,-49.48302841186523,-139.55426025390625,7.39376020431519,-6.26986980438232,-1.60009777545929,8.28168296813965,-4.83245182037354,-3.20372724533081
568,2181814869,-102.60131072998047,-49.51786422729492,-139.44621276855469,7.69406080245972,-6.30474472045898,-1.82959139347076,9.34498405456543,-5.05368280410767,-2.46020340919495
569,2181831536,-102.55900573730469,-49.54627990722656,-139.35313415527344,7.66776132583618,-6.46767950057983,-1.48273968696594,9.23583316802979,-4.56679677963257,-1.95132982730865
570,2181848203,-102.54342651367188,-49.57756423950195,-139.22076416015625,7.56861400604248,-6.45802879333496,-1.26579260826111,9.43255329132080,-6.02322530746460,-2.45216059684753
571,2181864870,-102.58643341064453,-49.62567520141602,-139.05195617675781,7.49858713150024,-6.26993560791016,-1.34765052795410,7.58129215240479,-7.18158626556396,-3.74621748924255
572,2181881537,-102.67572784423828,-49.67315673828125,-138.88446044921875,7.57358646392822,-6.07980394363403,-1.21375572681427,4.74680948257446,-7.12779855728149,-3.70227837562561
573,2181898204,-102.76461791992188,-49.70241928100586,-138.74336242675781,7.57706069946289,-6.07953929901123,-1.37041473388672,3.56605029106140,-6.35579299926758,-2.41767287254333
574,2181914871,-102.83463287353516,-49.72385787963867,-138.62098693847656,7.53682136535645,-6.34382772445679,-1.56709933280945,3.84935212135315,-5.74691343307495,-1.80505514144897
575,2181931538,-102.89555358886719,-49.74382400512695,-138.50498962402344,7.59092092514038,-6.55604028701782,-1.64440858364105,4.10464715957642,-5.51997327804565,-1.66769433021545
576,2181948205,-102.94358062744141,-49.76703643798828,-138.39477539062500,7.63199472427368,-6.64047527313232,-1.72228872776031,4.61752796173096,-5.25581550598145,-1.81115102767944
577,2181964872,-102.98949432373047,-49.78236770629883,-138.30113220214844,7.64436864852905,-6.52680778503418,-1.72832548618317,3.98150134086609,-4.73187065124512,-1.21018743515015
578,2181981539,-103.02628326416016,-49.78554916381836,-138.22021484375000,7.60095119476318,-6.49816131591797,-1.72280311584473,3.94783353805542,-4.41397809982300,-0.39104193449020
579,2181998206,-103.05877685546875,-49.78023910522461,-138.12133789062500,7.61978626251221,-6.44035959243774,-1.83408272266388,5.01472997665405,-5.20365571975708,-0.05184010788798
580,2182014873,-103.06015014648438,-49.77705001831055,-138.02233886718750,7.63110399246216,-6.37956666946411,-1.78904676437378,6.90204191207886,-5.18551063537598,-0.18068483471870
581,2182031540,-103.04191589355469,-49.77756118774414,-137.91380310058594,7.60775518417358,-6.31443405151367,-1.64972698688507,8.51550197601318,-5.49227428436279,-0.48049440979958
582,2182048207,-103.00713348388672,-49.77928161621094,-137.80223083496094,7.59269905090332,-6.22119569778442,-1.64379680156708,9.64685440063477,-5.59390497207642,-0.57572245597839
583,2182064874,-102.98024749755859,-49.78176116943359,-137.68537902832031,7.53808689117432,-6.28239583969116,-1.59709680080414,9.41175460815430,-5.78146648406982,-0.66193485260010
584,2182081541,-102.98659515380859,-49.77912902832031,-137.56256103515625,7.57647323608398,-6.31859207153320,-1.50994718074799,7.69170761108398,-6.07509136199951,-0.41537413001060
585,2182098208,-103.02192687988281,-49.76486968994141,-137.45372009277344,7.69670009613037,-6.26420640945435,-1.44647097587585,5.31501436233521,-5.70558929443359,0.38441473245621
586,2182114875,-103.08654022216797,-49.74352645874023,-137.35134887695312,7.71577692031860,-6.11390924453735,-1.52928864955902,3.25932526588440,-5.55894279479980,0.85251247882843
587,2182131542,-103.15048980712891,-49.72338104248047,-137.26037597656250,7.65333080291748,-6.16153907775879,-1.62371230125427,2.77100634574890,-5.11525440216064,0.87733107805252
588,2182148209,-103.21692657470703,-49.69976425170898,-137.18130493164062,7.62771224975586,-6.36320638656616,-1.61739444732666,2.07962965965271,-4.71296739578247,1.18196856975555
589,2182164876,-103.28087615966797,-49.67018127441406,-137.10540771484375,7.63173961639404,-6.46511888504028,-1.57286906242371,2.08098697662354,-4.67851829528809,1.55372405052185
590,2182181543,-103.33226776123047,-49.64437866210938,-137.01730346679688,7.55663585662842,-6.43295574188232,-1.71738183498383,3.38852882385254,-5.09197187423706,1.22142505645752
591,2182198210,-103.39162445068359,-49.62479782104492,-136.92982482910156,7.51476240158081,-6.27396011352539,-1.69549715518951,2.88114047050476,-4.98339891433716,0.85892826318741
592,2182214877,-103.47885131835938,-49.60099411010742,-136.84442138671875,7.60861063003540,-6.08495569229126,-1.65171027183533,1.11477351188660,-4.96748113632202,1.11875653266907
593,2182231544,-103.55894470214844,-49.57455062866211,-136.76625061035156,7.64697456359863,-6.12063598632812,-1.68543875217438,1.21012973785400,-4.72992324829102,1.33528614044189
594,2182248211,-103.62439727783203,-49.55283737182617,-136.67134094238281,7.73119878768921,-6.26358318328857,-1.76938211917877,2.85716724395752,-5.29816675186157,0.89978063106537
595,2182264878,-103.63807678222656,-49.55770492553711,-136.56677246093750,7.61280393600464,-6.47134208679199,-1.79141807556152,6.39945554733276,-5.28894662857056,-0.74029684066772
596,2182281545,-103.68878173828125,-49.56444931030273,-136.48585510253906,7.52923297882080,-6.36618947982788,-1.32046532630920,3.09651803970337,-4.36679887771606,-0.63163489103317
597,2182298212,-103.75524902343750,-49.56067276000977,-136.38600158691406,7.68042707443237,-6.04030895233154,-1.60259878635406,3.02235627174377,-5.23318624496460,-0.19979186356068
598,2182314879,-103.77687072753906,-49.54412460327148,-136.28799438476562,7.61381912231445,-6.06424427032471,-1.97556519508362,5.62281465530396,-5.34427022933960,0.56110394001007
599,2182331546,-103.84218597412109,-49.51185607910156,-136.21026611328125,7.59749746322632,-6.28401803970337,-1.55205202102661,2.07699155807495,-4.80745315551758,1.66329538822174
600,2182348213,-103.97646331787109,-49.48317718505859,-136.08804321289062,7.75350618362427,-6.20390319824219,-1.53102838993073,-0.03337335586548,-6.44132661819458,1.03039276599884
601,2182364880,-104.12376403808594,-49.45265960693359,-135.96821594238281,7.86427068710327,-6.15715074539185,-1.51403677463531,-0.92906242609024,-6.38255739212036,1.14737868309021
602,2182381547,-104.24922943115234,-49.43323898315430,-135.84992980957031,7.66360235214233,-6.19744014739990,-1.58984184265137,0.31319850683212,-6.16300535202026,0.50574201345444
603,2182398214,-104.34440612792969,-49.42725753784180,-135.74371337890625,7.50862884521484,-6.17239856719971,-1.74852335453033,1.57449603080750,-5.51057243347168,-0.16631607711315
604,2182414881,-104.42000579833984,-49.42195510864258,-135.65979003906250,7.57141208648682,-6.06851434707642,-1.79092311859131,1.73417830467224,-4.65454483032227,0.00263170502149
605,2182431548,-104.49126434326172,-49.41087341308594,-135.57572937011719,7.61677694320679,-6.22002077102661,-1.70565283298492,2.00147271156311,-4.74954271316528,0.33213910460472
606,2182448215,-104.55677032470703,-49.40780639648438,-135.49418640136719,7.60709142684937,-6.39856147766113,-1.71216797828674,2.22824740409851,-4.53239774703979,-0.11031390726566
607,2182464882,-104.63646697998047,-49.39980316162109,-135.41369628906250,7.59259748458862,-6.29874753952026,-1.79347479343414,1.33511984348297,-4.56939601898193,0.18161328136921
608,2182481549,-104.71880340576172,-49.39149475097656,-135.33236694335938,7.52173089981079,-6.29817104339600,-1.67455458641052,1.20490467548370,-4.60622692108154,0.18737611174583
609,2182498216,-104.78814697265625,-49.38758087158203,-135.24055480957031,7.48012208938599,-6.20719337463379,-1.68698894977570,2.45958137512207,-4.93390226364136,-0.17775213718414
610,2182514883,-104.85138702392578,-49.39068984985352,-135.15657043457031,7.50569915771484,-6.22591209411621,-1.76519274711609,2.47447514533997,-4.52835130691528,-0.50948786735535
611,2182531550,-104.90651702880859,-49.39579391479492,-135.09274291992188,7.57416152954102,-6.26758337020874,-1.71312701702118,2.03955841064453,-3.73576569557190,-0.42470976710320
612,2182548217,-104.95348358154297,-49.39978790283203,-135.02601623535156,7.56784534454346,-6.29102039337158,-1.75212848186493,2.66878581047058,-3.86586618423462,-0.39411547780037
613,2182564884,-105.03141021728516,-49.40618896484375,-134.92367553710938,7.45700120925903,-6.33191251754761,-1.71967446804047,2.42607951164246,-5.16669559478760,-0.89338374137878
614,2182581551,-105.14505767822266,-49.41471481323242,-134.81146240234375,7.48864507675171,-6.21052026748657,-1.65743076801300,0.73094171285629,-5.50267171859741,-1.12369334697723
615,2182598218,-105.25904083251953,-49.42399215698242,-134.71723937988281,7.55909633636475,-6.00540304183960,-1.61794626712799,-0.10739405453205,-4.81075668334961,-0.99063527584076
616,2182614885,-105.36162567138672,-49.43244171142578,-134.63902282714844,7.57669162750244,-6.04036951065063,-1.72762370109558,-0.14896348118782,-4.21741294860840,-0.78499084711075
617,2182631552,-105.45944213867188,-49.44390869140625,-134.54351806640625,7.48341798782349,-6.27412033081055,-1.74698770046234,0.92908138036728,-4.81381750106812,-1.14195501804352
618,2182648219,-105.56410217285156,-49.46086883544922,-134.41891479492188,7.40275049209595,-6.37394857406616,-1.70703625679016,1.83924186229706,-5.81955242156982,-1.76698195934296
619,2182664886,-105.68046569824219,-49.47836303710938,-134.27346801757812,7.42742872238159,-6.21300745010376,-1.75588691234589,2.09183406829834,-6.58542251586914,-2.02656650543213
620,2182681553,-105.79137420654297,-49.49976730346680,-134.11557006835938,7.51094722747803,-6.12045907974243,-1.87452948093414,2.98966169357300,-6.98336791992188,-2.39450621604919
621,2182698220,-105.89035797119141,-49.52711486816406,-133.95654296875000,7.58539247512817,-6.11546516418457,-1.89304494857788,3.75936269760132,-6.92209053039551,-2.75928258895874
622,2182714887,-105.97900390625000,-49.55605697631836,-133.79205322265625,7.60876655578613,-6.17394542694092,-1.73522496223450,4.63193655014038,-7.09197950363159,-2.91622447967529
623,2182731554,-106.06558227539062,-49.58780288696289,-133.60780334472656,7.45413970947266,-6.22228813171387,-1.74896848201752,5.66058063507080,-7.77074146270752,-3.29650878906250
624,2182748221,-106.13515472412109,-49.63049697875977,-133.40979003906250,7.49940061569214,-6.15371608734131,-1.88572978973389,7.30975914001465,-8.09069728851318,-4.08437013626099
625,2182764888,-106.13358306884766,-49.69246292114258,-133.25523376464844,7.39392137527466,-6.24490833282471,-1.84076082706451,9.59650135040283,-6.14108371734619,-4.72674942016602
626,2182781555,-106.11279296875000,-49.76117706298828,-133.15153503417969,7.48702383041382,-6.25860643386841,-1.31510543823242,8.43265819549561,-4.12497806549072,-4.56596469879150
627,2182798222,-106.00575256347656,-49.83618545532227,-133.07450866699219,7.57604789733887,-6.11757421493530,-1.87095355987549,12.38220310211182,-3.03187942504883,-4.63408279418945
628,2182814889,-105.79442596435547,-49.90514755249023,-133.03977966308594,7.52595138549805,-6.13145685195923,-2.14601969718933,16.71113204956055,-1.56843376159668,-3.83636355400085
629,2182831556,-105.62596130371094,-49.97293090820312,-132.97990417480469,7.35941267013550,-6.27377414703369,-1.68804228305817,15.29233646392822,-2.53631234169006,-4.02807378768921
630,2182848223,-105.53556823730469,-50.03675842285156,-132.83229064941406,7.41590690612793,-6.18913173675537,-1.65652990341187,14.64281272888184,-5.86066484451294,-4.70413446426392
631,2182864890,-105.48391723632812,-50.09519195556641,-132.63043212890625,7.48280763626099,-6.17200136184692,-1.74415826797485,14.82266712188721,-7.96396970748901,-4.94562530517578
632,2182881557,-105.44113922119141,-50.14371109008789,-132.43719482421875,7.59341382980347,-6.06849193572998,-1.74884414672852,13.89852046966553,-7.80193042755127,-4.27891302108765
633,2182898224,-105.37012481689453,-50.18204879760742,-132.28953552246094,7.62048530578613,-6.11809730529785,-1.71691071987152,13.49830532073975,-6.27022361755371,-3.21410131454468
634,2182914891,-105.27399444580078,-50.21652603149414,-132.17015075683594,7.54620027542114,-6.20736694335938,-1.71752464771271,13.70383548736572,-5.28651666641235,-2.69543099403381
635,2182931558,-105.16349792480469,-50.25090026855469,-132.07144165039062,7.34385776519775,-6.27935028076172,-1.65597093105316,13.61777496337891,-4.52556276321411,-2.47447013854980
636,2182948225,-105.04507446289062,-50.28512954711914,-131.98255920410156,7.35526371002197,-6.14180183410645,-1.63885235786438,13.64476776123047,-4.17129373550415,-2.36138415336609
637,2182964892,-104.92264556884766,-50.32206726074219,-131.89018249511719,7.38397216796875,-6.10153484344482,-1.71187639236450,14.03808784484863,-4.25968313217163,-2.54483485221863
638,2182981559,-104.81270599365234,-50.37248611450195,-131.79048156738281,7.41681623458862,-6.19882297515869,-1.67369854450226,13.63877105712891,-4.32614803314209,-3.39511299133301
639,2182998226,-104.71480560302734,-50.42092895507812,-131.68856811523438,7.54946851730347,-6.21735906600952,-1.64030146598816,13.02221012115479,-4.44435071945190,-3.29359674453735
640,2183014893,-104.64221954345703,-50.46066284179688,-131.57429504394531,7.55197906494141,-6.17242097854614,-1.61402559280396,12.07332038879395,-5.03164958953857,-2.90233683586121
641,2183031560,-104.60426330566406,-50.49540710449219,-131.43760681152344,7.43570423126221,-6.17813301086426,-1.47732114791870,11.03900337219238,-5.94046640396118,-2.82695865631104
642,2183048227,-104.57604217529297,-50.52393341064453,-131.29216003417969,7.36193323135376,-6.18179798126221,-1.62540006637573,10.86067485809326,-6.35446929931641,-2.54670405387878
643,2183064894,-104.54421234130859,-50.55090713500977,-131.15701293945312,7.43093967437744,-6.14781188964844,-1.65907084941864,10.60321521759033,-5.99681329727173,-2.35341763496399
644,2183081561,-104.49517822265625,-50.57032012939453,-131.05136108398438,7.62754154205322,-6.11609172821045,-1.65241348743439,10.27065849304199,-5.01876592636108,-1.62958955764771
645,2183098228,-104.44782257080078,-50.57806396484375,-130.95819091796875,7.66368103027344,-6.10930490493774,-1.66513919830322,9.58979606628418,-4.73498964309692,-0.82809102535248
646,2183114895,-104.41302490234375,-50.58046722412109,-130.85639953613281,7.51788473129272,-6.13650465011597,-1.64128315448761,9.23600769042969,-5.13799238204956,-0.59938216209412
647,2183131562,-104.39759063720703,-50.58169555664062,-130.73039245605469,7.41380405426025,-6.11721134185791,-1.64456629753113,9.19493770599365,-6.04739809036255,-0.75623452663422
648,2183148229,-104.38630676269531,-50.58263015747070,-130.58166503906250,7.40787696838379,-6.08309650421143,-1.66061246395111,10.00792407989502,-6.89024877548218,-0.95583450794220
649,2183164896,-104.36080932617188,-50.58429336547852,-130.43696594238281,7.46737623214722,-6.11835527420044,-1.75411045551300,10.66811752319336,-6.72977256774902,-0.95916414260864
650,2183181563,-104.31903839111328,-50.57990646362305,-130.31025695800781,7.58170413970947,-6.14992856979370,-1.67638957500458,10.81297016143799,-6.16177177429199,-0.43398821353912
651,2183198230,-104.27180480957031,-50.56940841674805,-130.18762207031250,7.63079833984375,-6.16983985900879,-1.61332595348358,10.95302009582520,-6.10317087173462,-0.03799005597830
652,2183214897,-104.22006225585938,-50.55549621582031,-130.05978393554688,7.52889204025269,-6.17231082916260,-1.59434533119202,11.45873069763184,-6.34303331375122,0.11760076880455
653,2183231564,-104.16714477539062,-50.54264068603516,-129.93041992187500,7.44322919845581,-6.17853307723999,-1.65709757804871,11.59743881225586,-6.38571834564209,0.04477103054523
654,2183248231,-104.11071014404297,-50.52851867675781,-129.80464172363281,7.58043289184570,-6.17990493774414,-1.62631309032440,11.64199066162109,-6.27517271041870,0.15589179098606
655,2183264898,-104.01870727539062,-50.52152633666992,-129.73707580566406,7.55085802078247,-6.23804092407227,-1.39881479740143,11.07761287689209,-4.01654052734375,0.28611958026886
656,2183281565,-103.91991424560547,-50.51511001586914,-129.69883728027344,7.52362918853760,-6.16139030456543,-1.55856132507324,10.13265609741211,-2.93020272254944,0.52855664491653
657,2183298232,-103.80937957763672,-50.49744796752930,-129.65620422363281,7.73364686965942,-6.07848453521729,-1.83954095840454,11.04386997222900,-3.25681662559509,1.14362049102783
658,2183314899,-103.71466064453125,-50.46315383911133,-129.59358215332031,7.65069866180420,-6.14649677276611,-1.66051661968231,11.01095485687256,-4.22989416122437,1.93701243400574
659,2183331566,-103.66777038574219,-50.43177795410156,-129.49761962890625,7.53389692306519,-6.17765808105469,-1.44130241870880,9.67777442932129,-5.42561054229736,1.46760821342468
660,2183348233,-103.64102172851562,-50.41218185424805,-129.39321899414062,7.63216066360474,-6.27745580673218,-1.55023932456970,8.86758041381836,-5.57203817367554,0.70715403556824
661,2183364900,-103.59337615966797,-50.40320968627930,-129.31455993652344,7.68781757354736,-6.36327505111694,-1.62013757228851,8.92853832244873,-4.46651697158813,0.32099124789238
662,2183381567,-103.47691345214844,-50.39990997314453,-129.30242919921875,7.65184926986694,-6.25177145004272,-1.69912135601044,9.97787761688232,-1.91511976718903,0.58968132734299
663,2183398234,-103.32968902587891,-50.39615631103516,-129.30986022949219,7.58307743072510,-6.19869709014893,-1.82278084754944,10.91857051849365,-1.19563341140747,0.79422450065613
664,2183414901,-103.19556427001953,-50.39981079101562,-129.29478454589844,7.48571252822876,-6.21980810165405,-1.67992961406708,11.18281745910645,-1.92870736122131,0.15841461718082
