sep=,
DeviceTag:,Xsens DOT 1
FirmwareVersion:,2.2.1
AppVersion:,2023.6.0
SyncStatus:,Synced
OutputRate:,60Hz
FilterProfile:,General
Measurement Mode:,Custom modes - custom mode1
StartTime: ,2023-12-12_15:44:41_808 CET
© Movella Technologies B. V. 2005-2023

PacketCounter,SampleTimeFine,Euler_X,Euler_Y,Euler_Z,FreeAcc_X,FreeAcc_Y,FreeAcc_Z,Gyr_X,Gyr_Y,Gyr_Z
1,2137147309,167.161499,-27.392660,121.049980,2.894287,-3.739929,-6.387124,279.038239,148.086487,74.306389
2,2137163976,170.738632,-29.849863,120.605949,1.278895,-4.318883,-6.570797,201.760269,140.356155,50.134430
3,2137180643,173.328003,-32.075031,120.330338,1.007947,-3.822075,-5.742651,146.764191,130.406448,31.455931
4,2137197310,175.057327,-34.056129,120.192413,-0.274226,-2.006500,-5.620887,99.160782,117.715469,17.824944
5,2137213977,176.126892,-35.804653,120.184280,-0.353258,-0.338223,-4.536879,63.818516,104.734894,7.348296
6,2137230644,176.712036,-37.355156,120.333206,-0.462346,0.558061,-3.965897,40.356403,93.461731,-2.466478
7,2137247311,176.830246,-38.741806,120.666901,-0.440481,1.790637,-3.919565,19.356697,84.114693,-12.173403
8,2137263978,176.428467,-39.978554,121.177574,-0.541961,2.784344,-3.465144,-4.745970,75.619225,-20.402891
9,2137280645,175.571426,-41.064682,121.829865,-1.122784,3.100535,-3.687797,-26.064663,67.222275,-26.243240
10,2137297312,174.441040,-42.009171,122.581627,-1.474386,2.739604,-3.701225,-37.981400,59.511242,-29.805861
11,2137313979,173.232697,-42.828690,123.411003,-1.291615,2.650998,-3.672925,-39.006802,52.939095,-32.347321
12,2137330646,172.123978,-43.541058,124.293831,-2.059623,1.981641,-3.752905,-30.347822,47.409462,-33.960953
13,2137347313,171.144455,-44.159653,125.227875,-1.873720,2.005075,-3.263227,-20.026077,42.682102,-35.686180
14,2137363980,170.075531,-44.684170,126.215904,-1.731334,2.527405,-2.134159,-22.726149,38.025749,-37.739502
15,2137380647,168.815826,-45.112934,127.254105,-1.978384,2.487018,-1.278620,-31.697226,33.428482,-39.770351
16,2137397314,167.410522,-45.462383,128.332733,-2.159277,2.177800,-0.648202,-38.414932,29.936193,-41.339878
17,2137413981,165.932068,-45.738754,129.447357,-2.320630,2.018769,0.455410,-41.014114,26.949594,-42.814640
18,2137430648,164.405716,-45.950203,130.594330,-2.276507,1.773655,1.198183,-42.299149,24.548630,-44.205517
19,2137447315,162.829529,-46.106602,131.767319,-2.041957,1.137757,1.600002,-44.017532,22.787039,-45.345921
20,2137463982,161.236328,-46.222416,132.952805,-2.257668,1.154943,1.612228,-44.381618,21.798872,-45.836788
21,2137480649,159.621536,-46.304897,134.131332,-2.360236,1.461485,2.117428,-45.898708,21.023607,-45.527622
22,2137497316,158.015930,-46.367832,135.293915,-2.811906,1.607344,2.665794,-45.981327,20.894762,-44.671520
23,2137513983,156.467163,-46.418091,136.427338,-2.747591,1.070596,2.875424,-43.791557,20.885695,-43.223152
24,2137530650,154.997711,-46.455990,137.531250,-2.407515,0.313030,2.756773,-40.280964,20.785667,-41.824574
25,2137547317,153.668808,-46.477901,138.605423,-1.914168,-0.060104,2.770570,-33.124992,20.356695,-40.596748
26,2137563984,152.517960,-46.485783,139.664795,-2.036360,0.046199,1.974403,-23.077351,20.168337,-39.973278
27,2137580651,151.583405,-46.475700,140.677002,-2.249238,0.240907,1.490312,-12.154668,19.005169,-38.395748
28,2137597318,150.844864,-46.441986,141.602829,-1.490639,1.493475,1.540396,-4.170359,16.585819,-35.688801
29,2137613985,150.191925,-46.365902,142.411285,-0.462320,2.303419,0.569694,-4.168318,12.410758,-32.546848
30,2137630652,149.611313,-46.233994,143.102524,1.085139,2.018122,0.161577,-4.972845,7.435046,-29.938271
31,2137647319,149.192245,-46.038887,143.675827,0.894487,1.132586,-1.020267,-0.457892,1.963853,-27.647367
32,2137663986,148.987396,-45.781616,144.147812,1.457684,0.119880,-1.790131,7.938247,-3.218206,-26.001621
33,2137680653,149.042328,-45.473862,144.546432,1.124974,-0.688842,-2.157750,20.285379,-7.312723,-25.006416
34,2137697320,149.394424,-45.135338,144.900375,1.050889,-1.351525,-1.807929,36.115372,-9.895869,-24.384996
35,2137713987,149.993271,-44.775764,145.238541,0.708723,-1.170432,-1.898889,50.159210,-11.463402,-24.437830
36,2137730654,150.766113,-44.401161,145.574432,1.051184,-0.634114,-1.271651,60.407532,-12.521170,-24.737646
37,2137747321,151.672028,-44.013950,145.896851,0.960358,-0.242366,-1.157631,67.733742,-13.759439,-24.489248
38,2137763988,152.697632,-43.619122,146.167969,1.083444,-0.016280,-0.896798,72.690697,-15.546227,-22.581314
39,2137780655,153.832199,-43.231579,146.367493,0.825783,0.419677,-0.645740,76.194908,-16.925194,-19.365688
40,2137797322,155.055038,-42.870865,146.510162,0.600605,0.604800,-0.568318,79.108253,-16.896824,-16.115887
41,2137813989,156.291336,-42.552814,146.620300,0.388341,0.703173,-0.431912,78.559639,-15.459929,-13.420239
42,2137830656,157.522995,-42.287514,146.713333,-0.449157,0.385158,0.148797,77.557381,-13.098351,-11.161567
43,2137847323,158.715591,-42.080414,146.793060,-1.024524,-0.134705,0.442423,74.668549,-10.287138,-9.049841
44,2137863990,159.774567,-41.922474,146.867050,-0.948299,-0.027998,0.659364,66.406738,-7.772733,-7.575562
45,2137880657,160.708633,-41.809780,146.960495,-0.772881,0.189106,0.996174,59.680939,-5.035419,-7.349722
46,2137897324,161.609589,-41.735100,147.087631,-0.291885,0.465067,0.900986,59.034767,-2.489880,-7.967865
47,2137913991,162.567993,-41.686127,147.235214,-0.356870,0.449458,1.293599,63.292747,-0.853107,-8.329535
48,2137930658,163.638443,-41.649601,147.395218,-0.404751,0.456867,1.304884,70.505943,-0.105027,-8.634425
49,2137947325,164.768600,-41.618740,147.575378,-0.138748,0.636874,0.758281,74.889061,0.321984,-9.412484
50,2137963992,165.910797,-41.594498,147.801483,0.372850,0.234823,0.446705,77.438065,1.059652,-11.312924
51,2137980659,167.067856,-41.576714,148.074234,0.357564,-0.368085,-0.039497,80.186234,1.722898,-13.279777
52,2137997326,168.263016,-41.565052,148.389450,0.266158,-0.358673,-0.210706,84.158302,2.240676,-15.099730
53,2138013993,169.434982,-41.557503,148.735123,0.001426,-0.344403,-0.163892,83.977615,2.460964,-16.440462
54,2138030660,170.473160,-41.554138,149.110580,-0.106283,-0.196223,-0.242465,77.132782,2.645869,-17.760571
55,2138047327,171.231415,-41.549637,149.517502,0.030629,-0.247503,-0.354856,61.588856,2.541976,-19.209229
56,2138063994,171.681488,-41.542934,149.955536,0.355969,-0.218303,-0.714057,44.333565,2.428713,-20.636377
57,2138080661,171.867783,-41.523468,150.417343,0.142833,-0.178793,-0.952058,29.449755,1.718114,-21.821381
58,2138097328,171.852066,-41.489754,150.888092,-0.018467,0.027458,-0.651298,17.675278,0.899358,-22.349077
59,2138113995,171.662613,-41.439030,151.353012,-0.344443,-0.006680,-0.467446,7.005131,-0.107881,-22.249794
60,2138130662,171.343948,-41.375561,151.809067,-0.148474,0.111971,-0.151423,-1.121889,-0.828188,-21.985031
61,2138147329,170.899780,-41.304352,152.251068,-0.350596,0.383610,-0.216372,-9.231194,-1.243499,-21.458374
62,2138163996,170.356766,-41.216766,152.676712,0.012905,0.757812,0.048254,-15.837255,-2.156390,-20.922398
63,2138180663,169.848694,-41.112598,153.066833,-0.682347,0.519232,-0.201216,-15.172239,-3.227194,-19.556681
64,2138197330,169.568268,-40.999813,153.411728,-0.685120,0.329830,-0.152693,-3.329245,-3.973649,-17.683426
65,2138213997,169.610962,-40.896610,153.711014,-0.641868,-0.162689,0.250866,14.234773,-3.745709,-15.581957
66,2138230664,169.909546,-40.807186,153.965942,-0.917215,0.285128,0.405145,27.823387,-3.333401,-13.464013
67,2138247331,170.256393,-40.725269,154.177597,-1.251623,1.052692,0.503315,29.006563,-3.298568,-11.447353
68,2138263998,170.480026,-40.638729,154.348969,-1.615017,1.261760,0.279478,20.023306,-3.935949,-9.681079
69,2138280665,170.538696,-40.541080,154.477341,-1.300409,1.071977,0.195192,8.436104,-4.945289,-7.858441
70,2138297332,170.504761,-40.442631,154.566788,-0.907213,0.618437,0.030602,1.356724,-5.293685,-6.123600
71,2138313999,170.476593,-40.348160,154.623047,-0.555127,0.416710,0.127136,0.405199,-5.310731,-4.596841
72,2138330666,170.516510,-40.266506,154.643402,-0.455955,0.266162,0.205291,3.092728,-4.825049,-2.851654
73,2138347333,170.627167,-40.203999,154.631195,-0.477191,0.092596,0.288493,6.075262,-3.942051,-1.186969
74,2138364000,170.784439,-40.164402,154.593811,-0.354739,0.177961,0.359609,7.897773,-2.773830,0.181526
75,2138380667,170.923080,-40.148216,154.546677,-0.429857,0.071427,0.140115,6.401632,-1.454930,0.855010
76,2138397334,170.973358,-40.146873,154.490875,-0.461491,-0.014161,0.101280,0.765954,-0.637615,1.388522
77,2138414001,170.877747,-40.151363,154.421219,-0.372133,-0.008536,-0.054042,-8.524740,-0.394807,2.070051
78,2138430668,170.658310,-40.160088,154.346771,-0.326009,0.017303,-0.079789,-16.140614,-0.189304,2.325321
79,2138447335,170.426590,-40.178143,154.277618,-0.381174,-0.027780,0.061290,-16.671654,0.388423,2.175692
80,2138464002,170.271042,-40.206306,154.223206,-0.388160,0.015038,0.065497,-11.536502,1.088444,1.613197
81,2138480669,170.185791,-40.240608,154.181061,-0.301150,0.184110,0.061220,-6.843203,1.539727,1.120908
82,2138497336,170.094131,-40.273472,154.145508,-0.149680,0.582255,-0.033619,-6.974864,1.501897,0.810111
83,2138514003,169.940536,-40.298737,154.105911,-0.009464,0.760533,-0.079906,-10.845291,1.014097,0.915859
84,2138530670,169.735474,-40.314434,154.067108,-0.021628,0.615250,-0.007741,-13.900930,0.447845,0.784947
85,2138547337,169.521713,-40.325470,154.034149,0.026828,0.272028,0.049953,-14.194609,0.212669,0.475878
86,2138564004,169.313583,-40.335915,154.013901,0.166403,-0.024412,-0.046039,-13.363742,0.278429,-0.100773
87,2138580671,169.104233,-40.346943,154.005157,0.188044,-0.122628,-0.239710,-12.990270,0.409605,-0.608328
88,2138597338,168.889908,-40.354664,153.999008,0.224958,-0.064503,-0.397717,-13.187025,0.236431,-0.761914
89,2138614005,168.676636,-40.357552,153.991867,0.058344,-0.025925,-0.435201,-13.164167,-0.055861,-0.771890
90,2138630672,168.484207,-40.358452,153.989273,0.231940,0.061347,-0.318818,-11.734450,-0.132661,-1.000125
91,2138647339,168.305328,-40.363777,153.999268,0.400086,-0.118199,-0.255769,-10.433145,0.245541,-1.510022
92,2138664006,168.141037,-40.374573,154.016266,0.512120,-0.045271,-0.252318,-9.284465,0.634600,-1.755046
93,2138680673,167.992203,-40.388077,154.026703,0.530625,0.164120,-0.263470,-8.612387,0.735731,-1.422952
94,2138697340,167.874283,-40.403404,154.022766,0.295034,0.399103,-0.278683,-7.313886,0.708940,-0.754896
95,2138714007,167.809067,-40.426865,154.012802,0.278514,0.487989,-0.236979,-4.384203,1.127029,-0.380233
96,2138730674,167.807297,-40.461803,154.001450,0.215807,0.322365,-0.234533,-0.629829,1.785903,-0.169723
97,2138747341,167.854660,-40.509468,153.986038,0.170341,0.317156,-0.105138,2.158862,2.496130,0.174928
98,2138764008,167.925873,-40.570091,153.957993,0.187170,0.452697,-0.156666,3.099105,3.135641,0.897962
99,2138780675,168.020081,-40.640503,153.908783,0.083146,0.468321,-0.101980,3.651936,3.512500,1.960127
100,2138797342,168.154526,-40.722321,153.838211,-0.012368,0.476412,-0.085862,5.230056,3.987148,3.043077
101,2138814009,168.324493,-40.819138,153.754272,0.005277,0.510571,0.015512,6.832450,4.755389,3.808461
102,2138830676,168.490463,-40.928864,153.658936,-0.004528,0.382037,0.142877,6.139232,5.425008,4.453710
103,2138847343,168.616730,-41.046722,153.547989,0.016248,0.357105,0.084290,3.135962,5.777119,5.222027
104,2138864010,168.708786,-41.169212,153.414841,-0.035969,0.440979,0.016290,0.198569,5.864470,6.241311
105,2138880677,168.806305,-41.295181,153.259308,-0.281728,0.265035,-0.010417,-0.371832,5.887112,7.254126
106,2138897344,168.946899,-41.426678,153.085663,-0.183959,0.172503,0.177429,1.478065,6.073458,8.092059
107,2138914011,169.118622,-41.566357,152.903061,-0.127076,-0.005346,0.189112,2.971478,6.504168,8.547298
108,2138930678,169.285126,-41.713612,152.714783,-0.087146,-0.113244,0.262197,2.411034,6.937364,8.845433
109,2138947345,169.415207,-41.863686,152.519409,0.017166,0.087787,0.084468,-0.079873,7.073111,9.149533
110,2138964012,169.515015,-42.010368,152.312012,-0.197887,0.228385,0.001532,-2.403075,6.799836,9.607718
111,2138980679,169.627411,-42.154343,152.090683,-0.271187,0.279522,0.121922,-2.230752,6.550111,10.153154
112,2138997346,169.790909,-42.301170,151.860794,-0.304117,0.226994,0.135303,0.466414,6.680390,10.520185
113,2139014013,169.993042,-42.450249,151.631699,-0.215498,0.198491,0.174737,2.789743,6.858476,10.462826
114,2139030680,170.194824,-42.602798,151.403061,-0.167482,0.253892,0.230751,2.758124,7.110801,10.430861
115,2139047347,170.379013,-42.752014,151.169373,-0.072402,0.334253,0.139168,1.471610,6.919230,10.569041
116,2139064014,170.557571,-42.894543,150.924103,-0.239136,0.302384,0.283780,0.636700,6.478525,10.959329
117,2139080681,170.740372,-43.030773,150.674896,-0.159909,0.336917,0.344497,0.704817,6.118064,11.023052
118,2139097348,170.915588,-43.163597,150.429581,-0.049514,0.229994,0.329044,0.382430,5.984290,10.780654
119,2139114015,171.058441,-43.290195,150.196960,0.128041,0.089095,0.273707,-1.062089,5.738361,10.134348
120,2139130682,171.179474,-43.406494,149.970474,0.195400,-0.001718,0.231993,-2.139532,5.198349,9.741902
121,2139147349,171.320541,-43.508060,149.749161,0.102584,0.117315,0.130354,-0.741923,4.388155,9.354216
122,2139164016,171.510300,-43.597229,149.532822,0.096566,0.159894,0.128721,2.367965,3.716782,9.002656
123,2139180683,171.763931,-43.676254,149.333313,0.150613,0.125552,0.239596,6.883034,3.262754,8.163528
124,2139197350,172.087067,-43.744320,149.154984,0.302980,0.085131,0.238198,11.921084,2.790371,7.135107
125,2139214017,172.488998,-43.801991,148.997055,0.442986,0.245585,0.247043,17.487726,2.345236,6.151224
126,2139230684,172.999390,-43.842827,148.856598,0.343049,0.490111,0.227390,24.715191,1.497533,5.249623
127,2139247351,173.667862,-43.866405,148.736771,0.283101,0.545652,0.413498,35.057289,0.638956,4.225403
128,2139264018,174.549362,-43.874165,148.639801,0.525899,0.552027,0.466374,48.788174,-0.130447,3.136218
129,2139280685,175.664459,-43.869068,148.582214,0.676862,0.372336,0.544846,64.444458,-0.679784,1.376581
130,2139297352,177.024841,-43.857521,148.571548,0.738131,0.388933,0.624371,81.112999,-0.879611,-0.655790
131,2139314019,178.653824,-43.841030,148.617920,0.553903,0.288389,0.576330,99.602646,-1.069368,-3.110016
132,2139330686,-179.414902,-43.820133,148.727692,0.243782,-0.081857,0.558887,120.375908,-1.375203,-5.820873
133,2139347353,-177.153809,-43.800064,148.906326,0.357603,-0.223919,0.478374,143.021393,-1.584619,-8.751226
134,2139364020,-174.591171,-43.793911,149.173462,-0.234668,-0.054655,0.442643,164.790131,-1.346167,-12.569235
135,2139380687,-171.782898,-43.807789,149.538574,-0.532782,-0.094250,0.486057,183.595154,-1.191197,-16.850220
136,2139397354,-168.774033,-43.832470,150.016525,-0.507552,-0.304392,0.447550,200.324234,-2.176136,-21.694857
137,2139414021,-165.612274,-43.871254,150.621521,0.225837,-0.156326,0.474116,214.786942,-3.673686,-27.090178
138,2139430688,-162.448837,-43.926620,151.367523,0.790324,0.867652,-0.136140,220.774078,-5.815707,-32.966225
139,2139447355,-159.500153,-43.986576,152.263855,1.076955,1.694615,-0.566778,214.176666,-9.345168,-38.806267
140,2139464022,-156.913651,-44.026497,153.314499,0.819546,1.999851,-1.206911,198.931046,-14.728135,-44.014801
141,2139480689,-154.794922,-44.033928,154.531174,1.270449,1.981895,-1.061030,177.815994,-21.172876,-49.086407
142,2139497356,-153.211197,-44.011051,155.916138,1.306141,1.912755,-0.946413,152.734497,-27.522249,-54.105282
143,2139514023,-152.161224,-43.970257,157.459579,0.731162,1.321967,-0.464662,127.289879,-32.833027,-59.063187
144,2139530690,-151.497559,-43.909489,159.124756,0.466457,1.130117,-0.559549,109.129448,-37.253242,-62.683453
145,2139547357,-151.026215,-43.826107,160.878845,0.019561,-0.314481,-0.331167,101.200882,-40.934788,-65.102524
146,2139564024,-150.699982,-43.725395,162.703522,0.619123,0.766479,-0.984852,95.302948,-43.829708,-67.086136
147,2139580691,-150.550552,-43.617771,164.602036,0.617300,0.792214,-1.019670,87.614540,-46.096630,-69.611183
148,2139597358,-150.593826,-43.491817,166.569168,1.057468,0.970226,-0.656384,78.725243,-48.650398,-71.763824
149,2139614025,-150.799484,-43.338455,168.592743,0.718149,1.033232,-0.743644,71.110077,-51.223694,-73.384354
150,2139630692,-151.134125,-43.172184,170.656876,0.311953,1.221398,-1.298112,64.793282,-52.520657,-74.997093
151,2139647359,-151.598038,-42.987526,172.737183,1.322853,0.885918,-0.752296,57.432758,-53.429924,-75.683960
152,2139664026,-152.165985,-42.783894,174.806000,0.815711,0.943273,-1.602535,50.417316,-53.643032,-75.434235
153,2139680693,-152.691513,-42.574722,176.834610,0.869652,0.268630,-1.682022,51.001049,-52.535492,-74.487366
154,2139697360,-153.064468,-42.365036,178.796631,1.108608,-0.499940,-1.282033,57.128445,-50.770294,-72.530197
155,2139714027,-153.307297,-42.168114,-179.321869,0.539918,-0.556731,-1.463788,61.378395,-48.207203,-70.218697
156,2139730694,-153.524582,-41.991852,-177.530884,0.992607,-2.092346,-1.016353,58.991661,-45.118095,-67.583801
157,2139747361,-153.797852,-41.851883,-175.845673,-0.289663,-2.409150,-1.803813,51.166344,-40.875397,-64.705742
158,2139764028,-154.139404,-41.762955,-174.274979,-0.550132,-2.617341,-0.799439,42.329067,-35.597622,-61.797962
159,2139780695,-154.565414,-41.709080,-172.822098,-1.104890,-2.107381,-0.248980,32.460178,-31.051048,-58.272552
160,2139797362,-155.039261,-41.681580,-171.484650,-1.818358,-1.035947,0.519886,24.930750,-26.993956,-54.552368
161,2139814029,-155.433090,-41.678455,-170.277344,-1.885162,-0.894223,1.183644,24.517691,-22.834280,-50.084030
162,2139830696,-155.616928,-41.717285,-169.204849,-2.304335,-0.017736,0.346729,31.752262,-17.798147,-45.731762
163,2139847363,-155.489349,-41.811054,-168.278351,-2.476150,0.574705,0.426292,44.657936,-12.061374,-41.105373
164,2139864030,-155.023117,-41.947800,-167.514099,-2.506529,0.071948,1.096272,58.567581,-6.869428,-35.465424
165,2139880697,-154.237976,-42.114292,-166.933365,-2.428151,-0.177010,1.730021,70.419724,-2.104600,-28.682573
166,2139897364,-153.205093,-42.315872,-166.540894,-2.870250,-0.523620,1.229536,77.781044,3.072743,-22.004866
167,2139914031,-151.981430,-42.574348,-166.332596,-2.808035,-1.058874,0.639681,81.840401,9.459882,-16.331154
168,2139930698,-150.543991,-42.879887,-166.312500,-1.940797,-1.326344,1.152053,87.048332,15.571822,-10.590007
169,2139947365,-148.909195,-43.201126,-166.483322,-1.374256,-1.661670,1.483513,91.075897,20.336040,-4.244846
170,2139964032,-147.151230,-43.515270,-166.827789,-1.780240,-1.506490,1.213133,91.263916,23.850609,1.772384
171,2139980699,-145.397156,-43.825226,-167.320297,-2.112885,-1.359159,1.241897,84.812645,27.230230,6.457238
172,2139997366,-143.721085,-44.120598,-167.935272,-1.699847,-1.453447,1.681473,74.910088,29.717396,10.367775
173,2140014033,-142.111816,-44.387829,-168.650711,-1.334716,-1.099303,1.961634,66.564697,31.203136,13.874911
174,2140030700,-140.533783,-44.620937,-169.455338,-1.320620,-0.858669,1.752873,60.799194,32.302597,17.158810
175,2140047367,-139.006393,-44.823055,-170.341690,-1.414381,-0.685789,1.484291,54.177612,33.522541,20.038683
176,2140064034,-137.580795,-44.988113,-171.308380,-1.144184,-0.187573,1.592674,44.543240,34.578335,23.106422
177,2140080701,-136.249313,-45.111557,-172.351883,-0.878482,-0.269158,1.423595,35.531387,35.472885,26.276785
178,2140097368,-135.024368,-45.197609,-173.458588,-0.693889,0.301602,1.000332,26.365982,36.278412,28.901676
179,2140114035,-133.947220,-45.257778,-174.612305,-0.291715,0.588929,0.843003,15.436419,37.157490,30.625425
180,2140130702,-133.043930,-45.301369,-175.798355,-0.245089,0.815169,0.166451,3.579476,37.972019,31.609362
181,2140147369,-132.299316,-45.334343,-177.015472,-0.259230,0.578312,-0.013803,-7.297151,38.945484,32.394482
182,2140164036,-131.646973,-45.340263,-178.271332,0.314006,0.044190,0.784328,-14.504136,39.465656,34.205376
183,2140180703,-130.993515,-45.320347,-179.580750,0.158311,-0.642386,0.538976,-16.720840,40.543106,36.410908
184,2140197370,-130.308624,-45.296066,179.050949,0.048837,-0.961550,0.103160,-17.330564,42.706768,37.760708
185,2140214037,-129.564529,-45.270275,177.630630,0.650359,-0.163871,0.009715,-15.975554,44.826550,38.714497
186,2140230704,-128.798981,-45.229321,176.183563,0.775215,0.303922,-0.250925,-15.800871,45.676418,39.556820
187,2140247371,-128.061295,-45.165119,174.724762,0.573585,0.803047,-0.650448,-17.914009,45.772320,40.383114
188,2140264038,-127.283516,-45.082268,173.253784,0.904179,0.386770,-0.081055,-15.945276,46.104294,41.018410
189,2140280705,-126.384209,-44.985012,171.765518,0.933617,0.020632,0.466139,-9.296478,46.870041,41.528194
190,2140297372,-125.455635,-44.878052,170.264984,0.519949,0.048267,0.239867,-7.948207,47.716125,41.611084
191,2140314039,-124.710159,-44.769329,168.765350,0.440926,0.047636,-0.289472,-18.777922,48.340202,41.037590
192,2140330706,-124.371422,-44.663654,167.283417,0.171014,0.109984,-1.150298,-42.317467,48.318443,40.064320
193,2140347373,-124.481102,-44.571159,165.821838,0.134384,-0.182545,-1.291250,-68.255730,48.218113,38.882172
194,2140364040,-124.828346,-44.497673,164.363831,0.338178,-0.512163,-0.839943,-82.270920,48.654850,38.097477
195,2140380707,-125.120567,-44.455505,162.893555,0.337257,-0.774210,-0.505624,-79.425598,49.990082,37.159733
196,2140397374,-125.209320,-44.447277,161.406479,0.440820,-0.502274,-0.540095,-67.901665,51.644199,36.085503
197,2140414041,-124.988640,-44.462032,159.899490,0.438452,-0.443066,-0.558634,-50.180000,53.173317,35.378880
198,2140430708,-124.481293,-44.475224,158.380112,0.799033,-0.204956,-0.541137,-33.522045,53.773212,35.406429
199,2140447375,-123.710968,-44.469925,156.857407,1.159867,-0.296387,-0.759080,-17.887487,53.669724,35.792976
200,2140464042,-122.783646,-44.446495,155.344391,1.291026,-0.184371,-0.936376,-8.048077,53.285908,35.676880
201,2140480709,-121.919823,-44.410854,153.860916,1.131600,0.373994,-1.269821,-10.580336,52.421810,34.789055
202,2140497376,-121.313461,-44.375919,152.429016,0.995634,0.474445,-1.589074,-23.824329,51.057674,32.934067
203,2140514043,-121.060226,-44.343571,151.057724,1.001512,0.578496,-1.824254,-42.431900,49.202633,31.088388
204,2140530710,-121.088463,-44.326382,149.752182,1.057720,0.540656,-1.724248,-56.530762,47.344749,28.763655
205,2140547377,-121.229698,-44.326748,148.508392,1.654480,0.315105,-0.837795,-60.715923,45.590984,26.566208
206,2140564044,-121.414413,-44.347630,147.331345,1.315340,0.449301,-0.815474,-60.532150,43.705952,24.145826
207,2140580711,-121.752632,-44.390930,146.229660,1.003501,0.379477,-0.949130,-66.604164,41.522167,21.489908
208,2140597378,-122.389343,-44.455986,145.208832,0.576764,-0.028059,-1.469800,-81.160431,39.056019,18.871393
209,2140614045,-123.369225,-44.532799,144.270981,0.566231,-0.471289,-1.382836,-98.314163,36.127239,16.869850
210,2140630712,-124.608017,-44.622929,143.409332,0.339562,-0.311879,-1.173135,-110.700287,33.474812,15.048368
211,2140647379,-126.019821,-44.732262,142.618729,0.083469,-0.455150,-0.496631,-118.146469,31.232040,13.086961
212,2140664046,-127.562584,-44.864147,141.887680,-0.007309,-0.563584,-0.163074,-123.558395,29.581881,11.240924
213,2140680713,-129.226959,-45.023884,141.213028,-0.163580,-0.843775,-0.272757,-128.546295,28.322090,9.217276
214,2140697380,-131.031326,-45.224995,140.594360,-0.441853,-0.621585,-0.730702,-134.656464,27.714191,6.581129
215,2140714047,-132.940109,-45.468987,140.031693,-0.049287,-0.390421,-0.840092,-138.638519,27.339073,3.913243
216,2140730714,-134.878464,-45.745419,139.527405,-0.278743,-0.231483,-0.387577,-138.017517,26.661316,1.651001
217,2140747381,-136.789505,-46.041924,139.084854,-0.293692,0.377877,0.027433,-133.827896,25.543531,-0.221718
218,2140764048,-138.664368,-46.362144,138.718430,-0.140966,0.336982,0.148673,-128.456238,24.353693,-2.748459
219,2140780715,-140.550751,-46.713268,138.440689,0.369154,0.368317,-0.146019,-125.374710,23.376339,-6.005318
220,2140797382,-142.547363,-47.100956,138.272430,0.483312,0.745411,-0.511301,-127.263184,22.408768,-10.146700
221,2140814049,-144.689926,-47.511772,138.227509,0.535358,0.440805,-0.135591,-130.618088,20.831993,-14.229849
222,2140830716,-146.956299,-47.926647,138.306244,0.379766,0.356730,0.363445,-132.577347,18.715229,-17.692682
223,2140847383,-149.240845,-48.346161,138.490860,-0.100125,0.266319,0.463098,-128.910202,17.369284,-20.658224
224,2140864050,-151.498718,-48.782719,138.779831,-0.592848,0.358419,0.560064,-122.560791,17.001108,-24.004171
225,2140880717,-153.775146,-49.246395,139.184158,-0.742211,0.455014,0.862478,-118.358833,17.295914,-27.998796
226,2140897384,-156.077850,-49.728470,139.706741,-0.776724,0.632913,0.949510,-114.411308,17.461678,-31.786055
227,2140914051,-158.385773,-50.214008,140.343674,-0.881290,0.489378,1.170740,-109.299889,17.240488,-35.018421
228,2140930718,-160.689682,-50.687717,141.092438,-0.798261,0.665185,1.292981,-103.681023,16.512032,-37.816460
229,2140947385,-163.021454,-51.151093,141.967728,-1.170470,0.838170,1.096959,-99.225586,15.986078,-41.199314
230,2140964052,-165.427643,-51.605011,142.988556,-1.330040,0.578379,0.950347,-96.605247,15.683496,-45.274132
231,2140980719,-167.985535,-52.034897,144.160980,-1.180055,-0.117709,0.340477,-98.262611,14.962301,-49.329552
232,2140997386,-170.737183,-52.431389,145.472290,-0.560603,-0.700153,-0.675583,-102.988762,14.338939,-52.836128
233,2141014053,-173.645309,-52.792782,146.890732,-0.153368,-1.196569,-1.555356,-106.951508,14.312088,-55.240349
234,2141030720,-176.623276,-53.122753,148.379257,-0.368109,-0.881070,-1.464863,-107.480736,15.016319,-56.389984
235,2141047387,-179.575089,-53.425873,149.898026,-0.529885,-0.369430,-1.144453,-104.161034,16.224981,-56.176128
236,2141064054,177.629364,-53.715057,151.424240,-1.350163,-0.336025,-0.709286,-94.145386,18.124882,-55.193592
237,2141080721,175.146027,-54.001957,152.932785,-1.726322,-0.329296,-0.285953,-75.993431,20.391890,-53.313705
238,2141097388,173.016525,-54.283550,154.416687,-1.551793,0.342397,0.003848,-55.706818,22.024426,-51.263786
239,2141114055,171.146408,-54.544155,155.883865,-1.484237,0.438809,0.417631,-40.708687,22.378572,-49.721916
240,2141130722,169.430634,-54.758709,157.330338,-0.916519,1.175202,0.971923,-32.250004,20.983303,-48.461441
241,2141147389,167.803589,-54.911285,158.747589,-0.248446,2.209625,1.157470,-28.200125,18.459579,-47.340855
242,2141164056,166.248840,-54.995399,160.133118,-0.143821,2.633966,0.990524,-25.308926,15.445182,-46.516163
243,2141180723,164.768890,-55.021473,161.492752,-0.182496,2.697677,1.053119,-22.042898,13.022729,-46.019085
244,2141197390,163.351410,-54.999420,162.835434,-0.019126,1.549921,0.885884,-19.116482,11.209616,-45.890079
245,2141214057,162.028992,-54.937969,164.136749,0.046963,0.396518,0.429300,-15.473619,9.605899,-44.987606
246,2141230724,160.777222,-54.852737,165.377213,0.516122,-0.395290,0.273075,-14.277970,8.593170,-43.296162
247,2141247391,159.578629,-54.757233,166.573563,0.742718,-0.828204,-0.000122,-13.312870,8.433789,-41.964886
248,2141264058,158.412888,-54.658813,167.763046,0.142548,-0.876070,0.211667,-11.748204,9.069014,-41.713531
249,2141280725,157.281769,-54.552948,168.960449,0.360055,-0.525673,0.800840,-9.360480,9.616078,-42.041077
250,2141297392,156.238327,-54.424984,170.141693,0.769737,-0.149057,0.736617,-4.975696,9.002327,-41.963444
251,2141314059,155.390228,-54.257748,171.272644,1.010726,0.033406,1.063681,4.192626,6.869452,-41.303040
252,2141330726,154.829498,-54.046253,172.346695,0.518115,0.168331,0.726166,18.533550,4.196037,-40.676456
253,2141347393,154.567444,-53.804344,173.382034,1.174148,1.205055,0.833189,34.426754,2.338687,-40.368752
254,2141364060,154.565704,-53.555496,174.363037,0.080606,1.557910,0.874005,47.271233,1.319526,-38.984482
255,2141380727,154.787292,-53.319290,175.235565,0.210698,2.190705,1.145732,55.298622,0.356323,-35.330730
256,2141397394,155.202744,-53.106544,175.979599,-0.139806,1.796814,0.452007,60.640881,-0.443273,-30.690048
257,2141414061,155.769821,-52.932137,176.611679,-0.342752,1.534773,-0.151226,64.286369,-0.233861,-26.154928
258,2141430728,156.433319,-52.814316,177.165619,0.077726,0.938892,-0.598258,66.282257,1.480510,-22.253426
259,2141447395,157.111740,-52.757870,177.650558,-0.082265,0.063045,-1.484084,63.854004,3.644904,-18.548452
260,2141464062,157.691940,-52.762959,178.064728,0.159552,-0.235943,-2.377158,54.571342,5.878650,-14.805641
261,2141480729,158.048584,-52.833862,178.420349,-0.149266,-0.307957,-2.901609,38.370453,8.622496,-11.386551
262,2141497396,158.017578,-52.969021,178.765060,-0.249004,-0.563345,-2.861298,14.610589,12.010729,-9.576233
263,2141514063,157.496292,-53.158443,179.151871,-0.107803,-1.381632,-2.946960,-12.751484,15.621910,-9.650305
264,2141530730,156.499603,-53.384716,179.657333,0.212190,-2.688813,-2.575645,-35.522858,19.411263,-12.440819
265,2141547397,155.095459,-53.627060,-179.630020,0.279017,-2.497906,-1.430858,-49.910858,23.520718,-18.299810
266,2141564064,153.369980,-53.854637,-178.640610,0.106811,-0.327160,0.063043,-55.705559,27.403269,-26.760794
267,2141580731,151.475708,-54.016998,-177.421860,0.185014,-0.723890,0.523277,-54.588345,28.405800,-34.729382
268,2141597398,149.614182,-54.070782,-176.102310,0.029024,-0.728516,0.811165,-47.649372,25.516565,-39.976532
269,2141614065,147.839706,-54.002216,-174.700348,-0.073598,0.696700,0.243487,-38.428791,21.975451,-45.442917
270,2141630732,146.040726,-53.812618,-173.127518,-0.790614,1.110523,-0.390901,-31.724501,20.639942,-53.883884
271,2141647399,144.106964,-53.490124,-171.350632,-1.143723,1.175175,-0.551209,-30.195044,20.156990,-63.966995
272,2141664066,141.985260,-53.008972,-169.427307,-0.864836,0.507629,-0.735308,-34.867287,18.275333,-73.612129
273,2141680733,139.654449,-52.344616,-167.451431,-0.736136,0.527232,-0.734695,-45.594700,14.345879,-81.981644
274,2141697400,137.066101,-51.490421,-165.486923,-0.872371,1.039004,-0.403350,-62.536304,9.837285,-89.467995
275,2141714067,134.150436,-50.461227,-163.569214,-0.643428,1.136717,-0.455937,-85.556511,6.383602,-96.051048
276,2141730734,130.967331,-49.286873,-161.728683,-1.062996,0.626953,-1.138083,-106.541451,4.590587,-101.119652
277,2141747401,127.736153,-48.020466,-159.973648,-1.593210,-0.101685,-1.877581,-114.804237,5.432484,-103.954147
278,2141764068,124.656433,-46.713570,-158.309555,-1.816903,-0.607089,-1.716506,-111.307495,8.082464,-104.316902
279,2141780735,121.896721,-45.400856,-156.727386,-2.325728,-1.192109,-1.461011,-97.208351,11.671700,-103.106689
280,2141797402,119.575333,-44.098774,-155.211624,-2.816806,-1.396938,-1.550239,-75.233414,15.396804,-101.291000
281,2141814069,117.678413,-42.791599,-153.737122,-2.133361,-1.394673,-1.099204,-52.955635,18.609350,-100.763931
282,2141830736,116.120720,-41.444214,-152.270294,-2.332398,-0.986884,-1.194651,-34.410332,21.448837,-102.795906
283,2141847403,114.925545,-40.027447,-150.795273,-2.872551,-1.752817,-0.909088,-13.926236,23.692732,-106.780869
284,2141864070,114.061203,-38.487236,-149.352783,-1.715645,-2.066267,1.117411,2.944721,22.475332,-113.076630
285,2141880737,113.585480,-36.803879,-148.009415,-2.334243,-3.079241,1.712739,20.718071,17.388260,-119.382774
286,2141897404,113.245171,-34.900417,-146.834656,-0.702308,-1.069433,3.697681,20.895836,6.846871,-128.729294
287,2141914071,112.472298,-32.701431,-145.928909,1.498275,-1.816146,5.133999,-16.100281,-9.828698,-140.359268
288,2141930738,111.062714,-30.188276,-145.351608,1.742774,-3.508361,4.124370,-66.463486,-28.649147,-152.242889
289,2141947405,109.677185,-27.448238,-145.050491,1.502714,-5.175065,1.474136,-74.396736,-42.537880,-160.889343
290,2141964072,108.695045,-24.512758,-144.985184,3.273824,-4.271105,3.236026,-57.212734,-54.691563,-168.777939
291,2141980739,108.743896,-21.400114,-145.096497,3.168057,-6.058259,2.931977,0.280398,-65.876266,-176.181610
292,2141997406,110.496033,-18.078373,-145.253494,1.529737,-5.312322,4.780441,101.832603,-75.375015,-186.048508
293,2142014073,113.123329,-14.418005,-145.272171,-2.374808,1.161091,13.083588,157.153122,-82.698067,-204.817932
294,2142030740,113.854095,-10.312255,-145.161789,-5.070067,4.346317,16.181498,45.142487,-92.363846,-229.811279
295,2142047407,112.053253,-5.874738,-145.112106,-0.383794,-1.595171,9.872330,-107.639717,-101.242889,-247.634109
296,2142064074,109.436188,-1.283146,-145.126373,0.828551,1.749173,10.549345,-157.062836,-98.501160,-258.667816
297,2142080741,108.272339,3.300771,-145.099670,-0.730277,1.643244,9.108057,-69.889595,-87.471741,-262.102875
298,2142097408,109.217682,7.768206,-145.008850,-0.516698,-0.924999,4.819084,56.105385,-81.098305,-256.877380
299,2142114075,111.309105,12.098621,-144.885498,-5.274201,2.155078,9.315401,124.081795,-83.256302,-247.588043
300,2142130742,113.516602,16.297590,-144.737595,-6.941476,-0.109259,4.954528,130.174240,-88.222763,-237.523132
301,2142147409,114.776566,20.390953,-144.551117,-7.341802,0.040168,0.711155,72.023270,-90.898285,-229.818298
302,2142164076,116.405670,24.336376,-144.263763,-5.394032,-1.256120,-3.153171,91.145546,-87.998627,-221.773682
303,2142180743,118.226685,28.113806,-143.890030,-4.978148,0.946974,-6.806980,99.320671,-86.273911,-212.032135
304,2142197410,120.579628,31.686689,-143.440155,-2.329644,-0.606898,-9.536316,127.697289,-85.008171,-199.702240
305,2142214077,124.741539,34.933258,-142.835480,-1.120003,-1.376146,-11.449040,229.744400,-79.769592,-181.841583
306,2142230744,129.050903,37.810123,-142.172318,-1.540881,0.144584,-10.255084,234.926956,-78.205132,-158.760300
307,2142247411,132.293991,40.316273,-141.584595,-0.825192,-0.005158,-8.883168,172.349319,-77.441605,-133.359344
308,2142264078,134.483749,42.487370,-141.171448,-0.444753,1.025120,-7.003500,114.997932,-76.189575,-108.895462
309,2142280745,135.648544,44.436985,-141.005020,-0.912549,1.873288,-5.282217,63.035229,-77.906624,-89.203438
310,2142297412,136.071884,46.270897,-141.053635,-3.154615,1.175699,-4.368329,27.505720,-80.602303,-76.610466
311,2142314079,136.345520,48.035088,-141.273712,-1.398751,-1.911003,-7.358069,26.136072,-82.832443,-68.238876
312,2142330746,136.897354,49.735065,-141.629059,1.390813,0.301415,-6.950129,49.197495,-83.985168,-61.340038
313,2142347413,137.488235,51.354633,-142.160782,3.178757,1.178180,-6.751415,60.101757,-85.287048,-52.625469
314,2142364080,137.951050,52.871784,-142.856232,3.832378,1.132980,-5.695226,60.708382,-84.800194,-43.725979
315,2142380747,138.296188,54.273918,-143.673843,3.098101,2.669240,-5.180469,60.177082,-82.290977,-35.890423
316,2142397414,138.407181,55.567406,-144.604431,3.107884,3.670141,-3.585143,52.350292,-79.506226,-28.999098
317,2142414081,138.196182,56.755692,-145.666046,3.602547,3.846676,-2.213990,40.241455,-76.995415,-22.330385
318,2142430748,137.571274,57.846123,-146.890289,3.917365,3.147313,-1.080868,24.317286,-75.280464,-15.806533
319,2142447415,136.586304,58.854519,-148.304993,3.601595,2.465842,-0.125324,13.155562,-74.754883,-9.934116
320,2142464082,135.262817,59.791676,-149.914780,3.479984,1.593929,0.903172,3.662221,-74.770721,-5.036235
321,2142480749,133.564041,60.668713,-151.738510,3.158859,1.041149,1.164312,-6.953196,-75.718170,-0.877970
322,2142497416,131.531555,61.506313,-153.789459,2.733651,0.525898,1.239950,-14.240988,-77.880615,1.913369
323,2142514083,129.247284,62.310463,-156.043716,2.743580,-0.276747,1.335752,-17.748531,-79.831558,3.242727
324,2142530750,126.816414,63.092289,-158.484283,2.607162,-0.083492,0.944770,-15.749979,-81.850800,3.167261
325,2142547417,124.367584,63.855801,-161.086380,2.523269,-0.209250,0.864874,-7.269576,-83.407997,2.082678
326,2142564084,121.902824,64.597641,-163.831589,1.867177,-0.086182,0.617841,0.406183,-84.342674,0.647448
327,2142580751,119.367516,65.312706,-166.742737,1.809991,0.296436,0.806302,6.088048,-85.521523,-0.454343
328,2142597418,116.792969,65.996506,-169.844238,1.491769,0.433499,0.872098,15.023857,-87.027870,-1.298612
329,2142614085,114.160645,66.640282,-173.179459,1.128141,0.452047,0.381796,25.277750,-89.201324,-1.495827
330,2142630752,111.409302,67.225616,-176.778976,-0.004334,0.149414,0.503463,33.575138,-91.635750,-0.800526
331,2142647419,108.494675,67.733444,179.342560,-0.412713,0.152984,0.551868,40.042007,-94.194611,0.584830
332,2142664086,105.354782,68.149261,175.159531,-0.255167,0.675135,0.320254,44.165428,-97.456612,2.371428
333,2142680753,101.911095,68.448845,170.665848,-0.525333,0.884122,0.575884,43.844124,-101.136497,4.828117
334,2142697420,98.189362,68.610878,165.924973,-0.611492,0.599080,0.579780,41.358059,-104.214767,7.382701
335,2142714087,94.261444,68.627144,161.026108,-0.693089,0.255017,0.474600,37.982529,-106.638054,9.428775
336,2142730754,90.194748,68.494583,156.031876,-0.587133,0.651825,0.312394,34.868603,-109.142029,10.972438
337,2142747421,86.054031,68.212357,151.004639,-0.206481,0.228836,0.381658,31.869806,-111.765991,12.040296
338,2142764088,81.960655,67.776855,146.011581,0.683476,-0.229553,0.396474,32.104412,-114.371521,13.013615
339,2142780755,78.030739,67.186546,141.127701,0.403952,-0.395332,0.326979,34.839161,-116.676300,14.130463
340,2142797422,74.353195,66.446236,136.442429,-0.081841,-0.879680,-0.013727,37.703030,-118.079124,15.473321
341,2142814089,70.974640,65.557961,132.012299,0.337120,-0.964073,-0.707469,40.050694,-119.089104,17.409946
342,2142830756,67.912971,64.525780,127.846802,0.326872,-1.569278,-0.746077,42.814774,-120.510811,19.715048
343,2142847423,65.175308,63.346264,123.934479,0.697588,-2.424055,-0.573464,46.524357,-122.815331,22.634445
344,2142864090,62.727421,62.018433,120.260193,1.058828,-2.515726,-0.153026,48.907040,-125.924088,25.926907
345,2142880757,60.520618,60.540108,116.845291,0.385039,-2.826857,-0.450334,47.183666,-128.839752,30.044764
346,2142897424,58.552803,58.914577,113.743439,-0.044160,-2.835900,-1.583072,42.559830,-130.386795,35.314663
347,2142914091,56.752949,57.136353,110.941078,0.429107,-2.458952,-1.212358,34.530079,-132.393692,41.326172
348,2142930758,55.107265,55.206451,108.431816,1.047536,-2.805004,-0.566110,26.209642,-134.396194,47.809883
349,2142947425,53.655018,53.137878,106.239288,1.240622,-3.290327,-0.190581,19.402500,-134.989487,54.917046
350,2142964092,52.400101,50.937294,104.387451,0.661765,-3.346241,0.322822,12.180972,-134.131592,63.270283
351,2142980759,51.319195,48.608028,102.848686,0.147407,-4.171129,0.917981,5.507325,-133.346100,72.009422
352,2142997426,50.298668,46.145485,101.594696,0.025179,-4.398067,2.020988,-6.003888,-133.011063,81.259209
353,2143014093,49.197678,43.564129,100.636299,-0.318342,-4.258583,3.098560,-25.643496,-131.361359,90.832977
354,2143030760,47.976364,40.884434,100.020226,-0.253602,-4.568833,3.109694,-48.584488,-127.076149,101.460175
355,2143047427,46.711044,38.119610,99.766869,-1.560727,-4.218220,3.701749,-66.403870,-121.245872,113.063034
356,2143064094,45.523815,35.285278,99.859848,-2.695455,-3.417466,3.389316,-74.738419,-114.892021,124.697739
357,2143080761,44.687866,32.420547,100.282684,-3.188242,-2.850545,3.248438,-64.486992,-106.637764,135.665161
358,2143097428,44.443974,29.574146,101.038574,-4.527926,-1.769663,3.624130,-38.221352,-94.651024,146.574875
359,2143114095,44.990513,26.781204,102.110062,-4.938732,-0.902726,3.641595,2.158843,-79.465187,157.203583
360,2143130762,47.080650,24.008747,103.436188,-3.889265,-1.934425,3.790950,90.949585,-64.001228,168.658707
361,2143147429,51.893524,21.084576,104.804459,0.886787,-2.767029,9.863323,256.876434,-56.590855,181.719528
362,2143164096,56.275635,17.772985,105.862778,3.972577,-3.165650,16.565084,241.375931,-68.299187,195.156784
363,2143180763,62.168423,14.244901,106.886536,-3.783731,-2.284489,-0.494825,336.168182,-57.826122,211.280655
364,2143197430,70.307335,10.600337,108.008369,-1.827610,4.708192,3.539301,473.301666,-28.143251,225.937225
365,2143214097,78.584595,6.839798,109.072716,5.775871,2.892232,10.097178,486.382141,0.200516,233.607193
366,2143230764,88.155197,3.034210,110.109657,2.190631,1.026076,0.087151,568.313782,35.191422,233.344589
367,2143247431,98.579842,-0.776749,111.021637,2.927651,1.413886,2.153609,623.792419,68.131729,224.448502
368,2143264098,109.309975,-4.526557,111.746849,7.699433,0.114608,3.852607,645.278015,96.587868,207.272919
369,2143280765,119.260216,-8.146149,112.222206,4.032701,-2.856688,-1.397301,599.704651,115.389038,185.612610
370,2143297432,127.792114,-11.567217,112.449203,6.952134,-2.588250,-0.288648,513.860107,124.806152,162.925873
371,2143314099,135.344650,-14.769207,112.488068,5.509561,-3.404185,-3.656138,453.370026,129.440002,141.401657
372,2143330766,141.803192,-17.740723,112.380348,3.321970,-3.554092,-4.842275,385.451691,129.864136,121.744843
373,2143347433,147.611954,-20.509739,112.197548,4.682096,-2.689656,-3.510091,344.717102,129.933578,103.534447
374,2143364100,153.094925,-23.107281,112.001472,2.320109,-1.985422,-5.446383,324.428131,130.387344,85.650162
375,2143380767,158.204849,-25.544222,111.836868,2.952025,-1.353251,-4.464945,302.371796,129.857849,67.516106
376,2143397434,162.794724,-27.839636,111.750847,2.674483,0.007290,-4.478229,272.944733,128.655746,49.321770
377,2143414101,166.120499,-29.993540,111.796989,1.437967,0.610805,-5.642365,200.788956,125.520859,31.264446
378,2143430768,168.794495,-32.004902,112.072342,3.094827,-1.026196,-3.081016,168.866882,121.233673,11.340483
379,2143447435,171.645828,-33.920448,112.611252,-2.032561,1.360815,-5.587981,188.604828,118.242325,-8.269356
380,2143464102,173.642563,-35.794613,113.275017,-2.202295,2.335253,-7.719139,142.492935,116.060120,-19.096233
381,2143480769,175.063354,-37.610416,114.037460,-0.245273,1.532082,-3.675608,112.511444,112.356903,-26.881132
382,2143497436,176.138336,-39.367443,114.877853,-1.654890,4.047645,-3.941432,95.803421,108.451996,-32.376305
383,2143514103,176.594391,-41.041553,115.783005,-2.378476,4.382948,-4.251247,62.337196,103.148926,-36.140972
384,2143530770,176.464401,-42.646614,116.763847,-0.622809,5.050132,-2.890357,31.381844,99.025620,-39.054134
385,2143547437,175.977417,-44.214764,117.842728,-3.892953,5.056146,-3.511393,15.206529,97.192726,-41.817791
386,2143564104,175.397583,-45.762405,119.027443,-4.310610,3.572152,-4.008429,15.378668,96.540749,-44.269634
387,2143580771,174.872452,-47.291206,120.345245,-3.036353,2.199841,-3.357104,25.771406,96.142105,-47.556385
388,2143597438,174.469849,-48.792931,121.845070,-2.467031,1.271585,-3.431279,42.653332,95.405403,-52.680122
389,2143614105,174.013458,-50.229389,123.563438,-1.535265,1.541609,-2.182729,50.909870,92.556473,-59.112762
390,2143630772,173.236420,-51.567486,125.558266,-0.359234,2.535926,-1.303259,46.140408,88.237877,-67.265442
391,2143647439,172.175446,-52.792519,127.841484,-1.592392,2.525717,0.005034,44.444004,83.620705,-75.146553
392,2143664106,170.734146,-53.898758,130.426331,-1.378076,3.793931,0.826298,37.829514,79.416542,-82.852936
393,2143680773,168.739029,-54.860180,133.315247,-1.371464,3.136871,1.654269,21.087547,74.739601,-90.209412
394,2143697440,166.280304,-55.680958,136.479263,-1.832878,2.773398,0.900654,8.394957,71.437523,-96.087242
395,2143714107,163.456940,-56.376457,139.904877,-2.355781,2.306823,0.314612,0.957326,70.202942,-101.120033
396,2143730774,160.256851,-56.937634,143.564545,-1.402982,1.853620,0.601287,-8.660795,69.495079,-105.355759
397,2143747441,156.698700,-57.361813,147.456619,-1.563522,2.185635,0.469102,-17.396061,70.048286,-109.651230
398,2143764108,152.952896,-57.652363,151.532135,-2.451638,1.957463,0.165518,-18.573915,71.537567,-112.614655
399,2143780775,149.259750,-57.793415,155.732147,-1.531921,0.847512,0.897617,-8.601416,72.291862,-114.874069
400,2143797442,145.558777,-57.761177,160.017380,-0.814764,1.026404,1.040389,-4.610288,72.071220,-117.703857
401,2143814109,141.806061,-57.530289,164.373611,-1.220536,1.678973,1.402979,-4.427135,71.532417,-122.053596
402,2143830776,138.013046,-57.091740,168.718414,-0.824258,1.329622,1.484802,-8.235320,70.380295,-125.798355
403,2143847443,134.209732,-56.446209,172.968475,-0.557190,1.466609,0.744938,-14.932362,68.804939,-128.706085
404,2143864110,130.575180,-55.621548,177.071564,-1.734388,1.236895,0.496854,-13.926159,68.053230,-130.411713
405,2143880777,127.224678,-54.645012,-178.999344,-1.659184,0.563390,0.229849,-7.622007,67.911781,-131.371048
406,2143897444,124.161995,-53.520485,-175.268097,-1.094778,-0.712629,0.070428,-2.468475,67.104630,-132.567078
407,2143914111,121.412025,-52.249622,-171.749588,-1.504241,-1.360604,0.018317,3.334645,65.618195,-134.243500
408,2143930778,118.899986,-50.812252,-168.428375,-1.617497,-1.452320,0.952681,5.287846,63.681488,-138.016541
409,2143947445,116.577057,-49.192867,-165.338287,-1.591062,-2.307038,1.436764,2.652554,60.073448,-142.649796
410,2143964112,114.434456,-47.385075,-162.549469,-1.942371,-2.910406,1.498756,-3.651777,53.604362,-147.045761
411,2143980779,112.473007,-45.399815,-160.110275,-1.802323,-3.590959,1.960916,-11.728480,45.025333,-150.684174
412,2143997446,110.571899,-43.248718,-158.064545,-0.894604,-3.894097,2.376895,-28.322128,34.178879,-153.547180
413,2144014113,108.633232,-40.947075,-156.391785,-1.169358,-2.646162,2.495463,-49.060127,23.681553,-156.373611
414,2144030780,106.666161,-38.522537,-155.042999,-0.903341,-3.237564,2.519012,-66.323196,15.064522,-158.811737
415,2144047447,104.883034,-36.026947,-153.994888,-0.430857,-3.931219,2.264539,-68.939674,7.331083,-159.031540
416,2144064114,103.659752,-33.531078,-153.217102,-0.546006,-4.185481,1.708055,-46.844776,0.125661,-155.939346
417,2144080781,103.219772,-31.097025,-152.689682,0.052550,-3.172971,2.466344,-9.575761,-8.025404,-149.640869
418,2144097448,103.633438,-28.743471,-152.349564,-0.334039,-0.496626,3.111983,34.879829,-15.669740,-142.854782
419,2144114115,104.933502,-26.464088,-152.118439,-0.633446,0.275007,3.715335,84.299103,-21.924538,-136.965485
420,2144130782,107.231544,-24.247145,-151.892838,-1.668504,0.704024,3.723579,143.544800,-25.203487,-132.604828
421,2144147449,110.386452,-22.053452,-151.580597,-2.782386,2.208092,4.932436,196.526062,-26.263603,-131.561966
422,2144164116,113.460991,-19.850283,-151.191605,-2.208365,1.185308,4.687774,192.709579,-29.297188,-132.184235
423,2144180783,115.733704,-17.612938,-150.767517,-1.435170,0.597232,3.453294,144.447205,-34.150307,-133.496964
424,2144197450,117.307297,-15.347672,-150.323547,-0.658998,-0.350361,1.670014,101.902985,-38.030254,-134.422729
425,2144214117,118.323723,-13.058025,-149.864822,-0.271693,-0.144456,0.595355,67.676422,-40.709660,-135.356979
426,2144230784,118.916542,-10.743896,-149.390274,-0.677577,0.637367,0.661755,41.384903,-42.260094,-136.626740
427,2144247451,119.266350,-8.407495,-148.896057,-1.047288,0.877486,0.101718,25.875704,-42.820198,-138.111588
428,2144264118,119.527573,-6.054133,-148.385010,-1.174517,1.411812,0.150157,19.501673,-43.022331,-139.349167
429,2144280785,119.870392,-3.697155,-147.850342,-1.313164,1.125167,-0.240313,23.278769,-42.514515,-140.075638
430,2144297452,120.366539,-1.346343,-147.292938,-1.413897,0.783692,-0.312233,31.237959,-42.093945,-140.169052
431,2144314119,121.046104,0.986590,-146.708847,-1.451767,0.593047,-0.261516,40.893322,-41.565460,-139.647141
432,2144330786,121.918716,3.290658,-146.097092,-1.364564,0.217007,-0.596105,51.004356,-41.136082,-138.447647
433,2144347453,122.996460,5.558563,-145.458923,-1.605883,0.250486,-0.626557,61.738174,-41.042763,-136.716095
434,2144364120,124.291962,7.783303,-144.790634,-1.769348,0.465936,-0.653768,73.110100,-41.032356,-134.606384
435,2144380787,125.666702,9.965530,-144.097107,-2.201077,0.683059,-0.336753,76.115524,-41.611736,-132.273026
436,2144397454,126.955528,12.107158,-143.379013,-2.674021,0.946964,-0.241847,69.151024,-42.258595,-130.013229
437,2144414121,128.016449,14.203902,-142.646103,-2.569422,0.848782,-0.531301,53.739136,-42.828197,-127.319656
438,2144430788,128.840714,16.248272,-141.903107,-2.354606,0.753160,-0.924476,37.860844,-42.789761,-124.271606
439,2144447455,129.550934,18.225704,-141.154663,-1.947705,0.588206,-1.363859,29.437935,-41.986633,-120.511093
440,2144464122,130.229279,20.129644,-140.407745,-1.600635,0.683404,-1.752019,26.126934,-41.029362,-116.260574
441,2144480789,130.966614,21.947468,-139.674454,-0.787172,0.370204,-2.340938,28.604603,-40.035191,-111.011574
442,2144497456,131.958344,23.659164,-138.970795,-0.368541,-0.462010,-3.360849,43.305676,-39.071663,-104.209633
443,2144514123,133.208847,25.262329,-138.307159,-1.271016,-0.152243,-2.626140,58.705585,-38.638191,-96.828865
444,2144530790,134.356430,26.783754,-137.703247,-1.307976,0.336920,-2.477723,53.127575,-39.895367,-89.919243
445,2144547457,135.339035,28.239218,-137.168793,-1.347057,0.910928,-2.001506,44.322903,-41.660595,-83.462608
446,2144564124,136.208984,29.636929,-136.716843,-0.314858,1.180214,-2.412931,39.263130,-43.781136,-76.996262
447,2144580791,136.880676,30.992977,-136.370392,0.290016,1.044462,-1.969242,30.006781,-46.949173,-70.481384
448,2144597458,137.268555,32.329002,-136.162521,0.494867,0.897657,-1.348002,16.922092,-51.681377,-63.858463
449,2144614125,137.123001,33.685585,-136.124313,-0.004476,1.162178,-1.057892,-9.783381,-58.619217,-58.209606
450,2144630792,136.414078,35.092396,-136.278778,-0.226234,0.907661,-1.215937,-37.100536,-66.930168,-53.738480
451,2144647459,135.728012,36.545486,-136.607590,0.227590,-0.247935,-2.679917,-29.419081,-74.068512,-50.464718
452,2144664126,135.525238,38.031464,-137.074570,-0.086755,-1.056168,-3.941535,4.993367,-79.493423,-47.922626
453,2144680793,135.646667,39.552704,-137.657883,-0.842739,-0.971083,-4.765566,29.383480,-84.466629,-45.902576
454,2144697460,135.792725,41.103077,-138.340576,-0.104470,-0.390725,-4.864525,35.432163,-88.585999,-44.110188
455,2144714127,135.700928,42.666298,-139.101532,0.458275,0.507370,-3.576779,25.125593,-91.089317,-42.628395
456,2144730794,135.291138,44.228542,-139.930527,0.934642,1.814393,-2.632808,9.761639,-92.348282,-41.473148
457,2144747461,134.657547,45.795994,-140.823883,1.285331,2.280781,-1.840119,0.031255,-93.445366,-41.269222
458,2144764128,133.985886,47.382832,-141.775940,1.444299,2.164819,-1.264022,1.330355,-94.754227,-42.202927
459,2144780795,133.404312,48.994457,-142.777359,1.701975,2.248548,-0.975247,10.018528,-95.888969,-43.747833
460,2144797462,132.974899,50.624718,-143.830597,2.267011,2.405894,-1.238954,22.631609,-96.786758,-44.900150
461,2144814129,132.723206,52.250797,-144.949509,2.052190,2.214843,-1.402281,37.506477,-97.118813,-44.551361
462,2144830796,132.596954,53.849392,-146.164902,1.220558,2.053958,-1.219879,50.809727,-97.301384,-42.298325
463,2144847463,132.492783,55.406071,-147.520859,0.682967,2.030295,-0.751546,60.192497,-97.909561,-38.430775
464,2144864130,132.251144,56.924435,-149.072144,0.125805,2.088350,-0.319695,62.908985,-99.721428,-33.837887
465,2144880797,131.715561,58.408562,-150.879517,0.290020,1.995742,-0.259953,59.593109,-102.709740,-28.859694
466,2144897464,130.831940,59.859131,-152.988724,1.062719,2.257892,-0.091770,55.706711,-106.226372,-24.050467
467,2144914131,129.582458,61.274406,-155.440475,1.283790,2.455379,0.190367,53.245869,-110.025391,-19.648102
468,2144930798,127.904678,62.632767,-158.263138,1.250572,2.242128,0.682426,48.895531,-113.091942,-15.190102
469,2144947465,125.800941,63.914242,-161.477661,1.315186,2.557948,0.661926,46.130211,-115.480904,-10.955818
470,2144964132,123.224754,65.090286,-165.112625,0.842500,2.595960,0.418399,42.373348,-117.277466,-6.399724
471,2144980799,120.084656,66.141411,-169.191483,0.809305,2.651076,0.676283,34.585117,-119.015831,-2.111868
472,2144997466,116.270683,67.049728,-173.767960,1.162097,3.083604,1.029698,23.249102,-121.766006,2.010840
473,2145014133,111.818466,67.786011,-178.832291,0.891131,2.567011,1.667232,13.521314,-124.418098,5.737055
474,2145030800,106.811211,68.312752,175.674316,0.488317,1.733397,2.055115,5.366005,-126.559967,9.458417
475,2145047467,101.356186,68.604843,169.846558,0.383804,1.424238,2.556474,-1.970962,-128.611328,12.757290
476,2145064134,95.588234,68.646378,163.807800,0.112078,0.603170,2.615524,-8.590757,-130.784409,15.487599
477,2145080801,89.667068,68.435257,157.713730,-0.134988,-0.177518,1.693200,-14.898222,-132.844482,17.267502
478,2145097468,83.760696,67.979340,151.718933,-0.344032,-0.798075,1.474685,-20.339502,-134.683304,18.120161
479,2145114135,78.067200,67.300171,145.944489,0.220132,-1.467556,1.286221,-21.152769,-136.393677,17.879532
480,2145130802,72.689583,66.413933,140.470901,0.458236,-1.602993,1.090531,-20.645920,-138.126846,17.326027
481,2145147469,67.740334,65.340218,135.365799,0.617182,-2.149449,1.384022,-17.400869,-139.428741,16.714725
482,2145164136,63.302391,64.099159,130.668091,0.553666,-2.778003,1.534579,-11.427736,-140.249710,16.378414
483,2145180803,59.399048,62.704388,126.373337,0.122778,-3.168205,1.603881,-3.832049,-141.240753,16.628061
484,2145197470,56.020477,61.172672,122.499489,-0.112270,-3.353575,1.831917,2.317750,-141.423035,17.806936
485,2145214137,53.117870,59.506493,119.050514,0.433273,-3.157452,1.563086,5.567865,-141.327957,20.636580
486,2145230804,50.662766,57.709457,116.022980,0.560476,-3.610538,1.645430,7.632824,-140.954575,25.014183
487,2145247471,48.653893,55.785412,113.419830,-0.531283,-3.853811,1.883208,9.937319,-140.000397,31.146509
488,2145264138,46.972351,53.738121,111.218544,-1.194176,-3.294190,2.146808,6.811500,-138.983444,38.465755
489,2145280805,45.476200,51.573025,109.396812,-1.480797,-2.809499,2.419920,-3.067631,-137.808197,46.564789
490,2145297472,44.088837,49.311432,107.963097,-1.539114,-1.853065,2.595456,-17.140154,-134.990829,55.352360
491,2145314139,42.844852,47.003887,106.927513,-1.183639,-1.225343,1.593121,-28.597330,-129.100006,63.825672
492,2145330806,41.925049,44.712246,106.301285,-1.180850,-0.429138,0.599471,-28.494242,-119.310089,72.028503
493,2145347473,41.437557,42.471794,106.040932,-1.566753,-0.109707,0.273725,-18.768150,-108.030952,79.613380
494,2145364140,41.484554,40.287247,106.057877,-1.019779,-0.181986,0.567700,1.836150,-97.829964,86.024467
495,2145380807,42.294029,38.149857,106.273903,-1.164348,-1.046516,0.681677,40.037361,-88.869003,91.777184
496,2145397474,43.750286,36.027813,106.596436,-1.124485,-0.902806,1.521020,75.350578,-82.665993,96.835625
497,2145414141,45.730789,33.893105,106.959137,-0.599846,-0.906187,1.692842,105.976059,-78.537399,101.512459
498,2145430808,48.252499,31.727520,107.325043,-0.133997,-1.100234,1.043457,139.014893,-75.266594,106.304550
499,2145447475,51.431076,29.529289,107.667595,0.616115,-0.800548,0.996079,179.832825,-71.679405,110.935745
500,2145464142,54.730309,27.290539,107.944199,1.407737,-0.271360,1.794602,189.645065,-69.159912,114.907089
501,2145480809,58.304913,25.056019,108.214821,0.543933,-1.098829,-1.140084,206.904922,-61.949890,118.634079
502,2145497476,62.937271,22.872715,108.578941,0.342092,0.180066,-1.992347,268.645325,-47.014042,122.750114
503,2145514143,67.978302,20.725147,108.997711,0.565253,1.055102,0.637983,292.708771,-32.441860,125.725578
504,2145530810,72.871895,18.598434,109.425987,0.415617,0.193915,-0.056556,284.553833,-20.080706,127.160034
505,2145547477,77.577576,16.488894,109.849899,0.549247,-0.108185,-0.266317,274.264038,-8.954464,127.400093
506,2145564144,81.990913,14.391373,110.253357,1.168453,-0.371175,0.582253,257.950928,0.528089,126.827896
507,2145580811,85.987968,12.315173,110.615929,1.012526,-0.385237,0.553472,234.406143,7.896811,124.943108
508,2145597478,89.852646,10.268027,110.941948,0.950389,-0.202458,0.038228,227.667923,14.609636,122.291946
509,2145614145,93.903549,8.253016,111.248909,1.246387,-0.243697,-0.509068,239.713684,22.034891,119.096237
510,2145630812,98.258217,6.260428,111.546783,1.360592,-0.655664,-0.556543,258.654388,30.211037,115.871346
511,2145647479,102.825439,4.281946,111.833725,1.929468,-0.684435,-0.065001,272.093658,38.495548,112.449951
512,2145664146,107.416695,2.320038,112.094597,2.387236,-0.743794,0.284307,274.230377,45.728786,108.453751
513,2145680813,111.817215,0.377357,112.309296,2.457187,-0.785612,0.514043,263.392151,51.209553,104.365471
514,2145697480,115.926086,-1.535667,112.467842,2.372436,-0.684051,0.638467,246.331345,55.108730,100.021019
515,2145714147,119.818024,-3.415972,112.568619,2.016030,-0.490119,0.337281,233.501419,58.052048,95.822456
516,2145730814,123.565735,-5.260685,112.613472,1.726818,-0.462627,0.208586,224.810013,60.405853,91.691788
517,2145747481,127.302200,-7.070896,112.606049,1.508959,-0.576162,0.295805,223.901062,62.595562,87.678116
518,2145764148,131.044998,-8.840889,112.546623,1.820823,-0.377801,0.247636,223.847473,64.343468,83.489586
519,2145780815,134.737564,-10.568513,112.438889,1.691273,-0.364492,0.469120,220.254044,65.886856,79.214531
520,2145797482,138.470963,-12.257469,112.292549,1.650060,0.010376,0.413105,222.073151,67.735924,74.810844
521,2145814149,142.274719,-13.909383,112.115944,1.784532,0.321618,0.173737,225.650208,69.777840,70.098671
522,2145830816,146.105469,-15.523842,111.914459,1.621455,-0.123616,0.137685,226.615417,71.738403,65.093460
523,2145847483,149.911011,-17.100548,111.695236,1.534662,-0.207796,0.292675,224.495514,73.576134,59.761349
524,2145864150,153.585373,-18.637148,111.463745,1.233800,0.196968,0.075575,216.071518,74.991409,54.220188
525,2145880817,157.166229,-20.138435,111.235550,0.934374,0.380354,-0.051378,210.192291,76.541740,48.204937
526,2145897484,160.686234,-21.614256,111.020889,0.909335,0.257149,-0.610296,206.506729,78.336899,41.997684
527,2145914151,164.037415,-23.068827,110.834900,1.372328,0.275575,-0.883428,196.735474,80.080948,35.207825
528,2145930818,167.071411,-24.505022,110.693436,1.683169,0.530666,-1.221074,178.536942,81.545731,27.945631
529,2145947485,169.622101,-25.923948,110.620331,1.637167,0.940284,-1.557539,151.104706,82.608505,20.009924
530,2145964152,171.598663,-27.330118,110.644516,1.553797,1.036711,-2.230040,119.203552,83.478859,11.416885
531,2145980819,172.717514,-28.727930,110.797852,1.394851,1.125111,-2.729525,71.430420,84.212143,2.338835
532,2145997486,172.801315,-30.142080,111.121552,1.075926,0.786645,-3.312894,14.569260,86.316864,-7.136111
533,2146014153,172.522064,-31.624210,111.642723,-0.117183,-0.229175,-3.523046,-0.697647,91.633675,-16.301622
534,2146030820,172.549225,-33.196751,112.354561,-0.282641,0.351826,-3.685352,24.522890,98.245224,-24.538752
535,2146047487,172.986572,-34.824417,113.218460,-0.480999,1.105440,-3.643274,55.226452,102.297585,-31.371309
536,2146064154,173.540085,-36.448711,114.188446,-0.162642,1.213959,-3.448790,67.111565,102.327156,-36.584072
537,2146080821,173.932053,-38.034748,115.250206,-0.057283,1.278008,-3.000574,62.062618,100.110817,-41.069271
538,2146097488,174.023544,-39.568920,116.426300,0.258514,1.918799,-2.432311,49.702930,97.282822,-46.068966
539,2146114155,173.798676,-41.049343,117.727043,0.215473,2.651136,-2.161054,36.995335,94.592407,-50.782585
540,2146130822,173.295959,-42.484322,119.151535,-0.255259,3.401083,-2.777923,26.780136,92.648949,-54.687458
541,2146147489,172.610336,-43.876530,120.671562,-0.732840,3.355109,-2.964808,21.289446,90.959740,-56.760189
542,2146164156,171.894547,-45.225742,122.267166,-1.352747,2.988645,-3.258892,24.239649,89.277374,-57.688904
543,2146180823,171.270248,-46.533810,123.962349,-1.249281,2.521060,-3.480474,35.582912,87.838013,-59.554688
544,2146197490,170.712402,-47.804455,125.816719,-0.275303,2.067796,-2.698911,48.147026,86.949715,-63.763840
545,2146214157,170.128998,-49.025208,127.865211,-0.081649,1.908040,-1.435955,56.956093,85.585632,-69.235596
546,2146230824,169.376877,-50.172512,130.109818,-0.088890,2.414889,-0.152021,57.468605,83.043320,-74.623383
547,2146247491,168.328354,-51.221462,132.537231,-0.494282,2.799933,0.819273,49.837330,79.343536,-79.304817
548,2146264158,166.947693,-52.164539,135.154785,-1.268225,3.277570,1.032975,40.456196,75.850449,-83.924774
549,2146280825,165.279617,-53.014339,137.995499,-1.640146,3.025158,0.712431,35.369614,74.052490,-89.220474
550,2146297492,163.294144,-53.764645,141.085358,-0.962379,2.152034,0.854612,29.772078,72.949142,-95.168991
551,2146314159,160.980850,-54.397732,144.409149,-0.693341,1.746603,0.671191,22.798918,71.695290,-100.616608
552,2146330826,158.328552,-54.899059,147.931213,-0.767095,2.071861,0.823795,13.328405,70.355629,-105.093765
553,2146347493,155.410553,-55.258781,151.608612,-0.678596,2.703198,1.156611,5.953591,69.096672,-108.573303
554,2146364160,152.299942,-55.467697,155.397766,-0.857525,2.082319,1.264279,0.553901,67.803604,-111.355789
555,2146380827,149.042709,-55.518059,159.246735,-0.694318,1.342503,1.630808,-4.970294,66.319084,-113.456314
556,2146397494,145.729675,-55.413738,163.134155,-0.716908,1.494042,1.868422,-6.470697,65.592178,-115.619514
557,2146414161,142.364944,-55.152355,167.051453,-1.102960,1.658830,1.808396,-8.504389,65.489998,-118.429115
558,2146430828,139.004211,-54.733994,170.952805,-1.537193,1.320281,2.123778,-9.835204,65.353340,-120.779823
559,2146447495,135.727646,-54.162128,174.796616,-1.512635,1.431798,1.923026,-8.750869,65.158691,-122.746803
560,2146464162,132.642624,-53.439529,178.546463,-1.194668,1.369427,1.830588,-3.313143,64.639122,-124.559364
561,2146480829,129.755920,-52.565144,-177.830688,-0.687591,1.904236,2.443512,0.646709,63.435593,-126.488823
562,2146497496,127.086655,-51.540047,-174.380035,-1.104604,1.956867,2.740456,3.372070,61.084785,-128.141525
563,2146514163,124.666092,-50.373726,-171.154739,-1.335051,1.535765,2.606905,5.349185,57.322151,-128.975571
564,2146530830,122.472099,-49.089016,-168.175064,-1.201557,1.468051,1.501040,5.073180,53.218510,-128.957016
565,2146547497,120.496330,-47.713257,-165.427048,-1.433358,0.793321,0.238061,5.069931,49.793324,-128.394363
566,2146564164,118.772743,-46.274887,-162.864853,-1.892807,-0.085157,-0.865322,9.337141,48.021957,-127.695663
567,2146580831,117.309021,-44.780399,-160.435806,-1.911390,-0.680147,-1.151595,16.520374,47.522640,-127.988091
568,2146597498,116.090103,-43.234722,-158.118225,-2.443706,-1.971007,-0.966086,23.826601,47.251911,-128.652481
569,2146614165,115.096764,-41.623898,-155.905823,-2.958865,-2.272099,0.067511,30.310795,46.195652,-130.380814
570,2146630832,114.279572,-39.928299,-153.820969,-3.583775,-3.539421,1.112765,33.017506,43.163437,-132.924042
571,2146647499,113.558884,-38.123299,-151.912979,-3.791872,-4.459801,2.510396,29.191460,36.987392,-136.028244
572,2146664166,112.787148,-36.187302,-150.237900,-3.111134,-5.397783,3.782162,14.740110,27.538155,-139.339264
573,2146680833,111.794884,-34.096134,-148.835464,-2.293795,-4.097520,4.461354,-10.775365,15.697881,-143.286560
574,2146697500,110.422249,-31.837391,-147.718201,-2.076860,-3.469235,4.536317,-45.557720,3.302031,-147.834381
575,2146714167,108.837517,-29.441025,-146.878586,-1.893892,-3.523688,3.503249,-69.091225,-7.821101,-151.185013
576,2146730834,107.762459,-26.974909,-146.294983,-0.756878,-4.934556,1.222586,-47.648632,-17.488501,-151.418137
577,2146747501,108.299011,-24.501038,-145.874512,-0.008226,-4.939004,-0.111658,43.407341,-24.635361,-149.467880
578,2146764168,110.904846,-21.996628,-145.435226,-1.311201,-0.327182,4.040761,166.944244,-27.880102,-151.006134
579,2146780835,113.675102,-19.398294,-144.967575,-2.156606,1.306304,7.816645,176.338043,-35.133728,-155.545700
580,2146797502,115.387894,-16.713123,-144.561890,-2.299273,-1.162586,5.698592,110.561592,-46.129948,-157.506088
581,2146814169,116.173775,-13.980499,-144.245865,-3.020460,0.802952,4.785208,52.441101,-55.139305,-156.939041
582,2146830836,116.525146,-11.242126,-143.992828,-2.663252,1.959652,3.730842,24.703457,-59.943707,-155.174927
583,2146847503,116.710777,-8.518880,-143.786575,-2.547158,2.438722,2.187907,13.609057,-62.595242,-152.918442
584,2146864170,117.012344,-5.832152,-143.617645,-2.186458,1.954159,2.022217,19.747890,-64.142525,-149.742203
585,2146880837,117.570999,-3.199405,-143.470932,-2.071146,1.252725,0.890829,34.631226,-64.895935,-145.802841
586,2146897504,118.260818,-0.622319,-143.333557,-2.388661,1.726365,1.460848,42.107201,-65.365326,-141.901993
587,2146914171,119.072632,1.895216,-143.190918,-1.457781,0.533148,0.929224,49.087029,-65.192696,-138.070602
588,2146930838,119.911156,4.355823,-143.036713,-2.094450,1.244544,1.118558,50.292912,-64.866478,-134.498276
589,2146947505,120.668732,6.758406,-142.861633,-2.304782,1.288972,0.622875,44.946751,-63.893238,-131.208038
590,2146964172,121.259544,9.101674,-142.663376,-2.036685,1.695461,-0.240629,34.342091,-62.430943,-128.099976
591,2146980839,121.809006,11.371815,-142.428268,-1.338608,2.089578,-1.523619,31.021715,-59.582123,-124.849083
592,2146997506,122.537323,13.548072,-142.149017,-0.017933,1.487184,-2.881763,40.663883,-55.829918,-120.740326
593,2147014173,123.594429,15.611151,-141.822540,-0.341826,1.709664,-2.939958,59.081432,-51.776516,-115.583046
594,2147030840,124.800560,17.568810,-141.459869,-0.450003,1.249452,-2.302733,66.744637,-48.868347,-110.371101
595,2147047507,125.864815,19.442148,-141.074173,-1.070282,1.471789,-1.910407,57.111904,-47.180855,-105.898186
596,2147064174,126.746193,21.240543,-140.669022,-0.940166,0.990562,-1.949382,45.045689,-45.579353,-101.972298
597,2147080841,127.436485,22.970366,-140.252869,-0.985634,1.000829,-2.133638,32.642246,-44.182587,-98.270569
598,2147097508,127.917877,24.637350,-139.831482,-1.078232,1.130712,-1.814472,19.306801,-42.843811,-94.841980
599,2147114175,128.284607,26.240477,-139.409637,-0.745181,1.149965,-2.200829,11.766326,-41.365253,-91.348076
600,2147130842,128.753784,27.771971,-138.985062,-0.577214,1.121612,-2.278258,17.220680,-39.444649,-87.590828
601,2147147509,129.449677,29.226154,-138.555832,-0.257423,1.120116,-2.493585,30.104353,-37.419514,-83.552109
602,2147164176,130.370102,30.599705,-138.125916,0.215871,0.941693,-2.929245,42.999157,-35.661137,-79.132629
603,2147180843,131.607147,31.873159,-137.702484,1.034885,0.034518,-3.895907,61.678062,-33.637589,-73.498611
604,2147197510,133.246674,33.025654,-137.294479,0.877309,-0.199081,-4.418581,85.847603,-31.317083,-66.551384
605,2147214177,135.052292,34.060905,-136.926529,0.879687,-0.341020,-4.024104,96.728241,-29.974504,-58.960064
606,2147230844,136.671097,35.008091,-136.618149,-0.109906,0.404510,-3.364824,87.214294,-30.087305,-52.085754
607,2147247511,137.923080,35.900173,-136.390106,-0.568394,0.601701,-3.069331,67.748184,-31.691044,-46.069519
608,2147264178,138.670792,36.764751,-136.260315,-0.685263,0.776814,-3.218251,40.816612,-34.467266,-40.780590
609,2147280845,138.756668,37.641479,-136.261002,-1.257030,1.113356,-3.130798,5.744930,-39.453556,-36.281490
610,2147297512,138.004257,38.579453,-136.429581,-1.330876,1.207339,-3.233154,-38.326519,-47.243397,-33.038624
611,2147314179,136.363037,39.619728,-136.795700,-1.381927,0.602819,-2.666997,-84.037117,-57.239929,-31.541605
612,2147330846,134.309692,40.765537,-137.360367,-0.551338,0.361759,-2.946939,-100.754532,-66.937027,-31.560993
613,2147347513,132.539688,42.000042,-138.107285,0.464289,0.197146,-3.523787,-76.005707,-75.164650,-32.332676
614,2147364180,131.591171,43.296879,-139.005569,0.841705,0.461893,-4.303604,-19.850023,-81.370224,-32.856598
615,2147380847,131.312057,44.644939,-140.027145,0.731834,0.597123,-4.497895,26.332090,-86.405685,-33.074539
616,2147397514,131.367020,46.042076,-141.143082,0.294692,0.984208,-4.426561,51.425179,-90.498543,-33.513374
617,2147414181,131.471268,47.471684,-142.318771,0.280950,1.480592,-4.170102,58.124302,-92.775604,-34.020332
618,2147430848,131.487869,48.917568,-143.522690,0.241684,1.651434,-3.221564,55.312519,-93.314804,-34.781590
619,2147447515,131.401840,50.373947,-144.757111,0.823861,2.244220,-2.401647,51.740108,-93.554405,-35.449734
620,2147464182,131.239365,51.853466,-146.068970,0.671319,2.538062,-0.910262,51.969521,-95.469193,-35.739628
621,2147480849,130.992859,53.361256,-147.502640,0.791086,2.253819,-0.101053,53.990219,-98.569077,-35.511169
622,2147497516,130.636749,54.890224,-149.101440,0.744932,2.211127,0.061784,56.790619,-102.209213,-34.399284
623,2147514183,130.137100,56.418228,-150.893112,1.071509,2.248224,-0.049113,59.191505,-105.283394,-32.253918
624,2147530850,129.453079,57.920395,-152.906204,0.979051,2.394485,-0.220148,60.850803,-107.665833,-29.064590
625,2147547517,128.454437,59.380127,-155.196930,0.786679,3.441792,-0.091047,57.844292,-110.312775,-24.889748
626,2147564184,127.064850,60.794044,-157.792282,-0.313453,3.509965,0.554913,51.984886,-112.950447,-21.261923
627,2147580851,125.233887,62.164532,-160.713364,0.333590,3.223839,1.052273,44.512653,-115.653084,-18.804398
628,2147597518,122.902657,63.480545,-163.989944,-0.008167,2.589574,2.041527,35.389515,-118.162125,-16.895853
629,2147614185,120.028679,64.733887,-167.661972,1.309391,2.563334,1.879900,26.123392,-120.838997,-15.728980
630,2147630852,116.628296,65.901573,-171.764526,2.181568,2.711531,2.105842,19.988657,-123.213814,-14.700216
631,2147647519,112.694016,66.951424,-176.310074,2.845426,2.184184,1.959167,14.243938,-124.860191,-13.537673
632,2147664186,108.262497,67.856659,178.723801,3.287684,2.620885,1.712147,9.516609,-125.670357,-12.612021
633,2147680853,103.466644,68.587814,173.359192,2.890901,1.979832,1.873868,11.454108,-126.237473,-11.316655
634,2147697520,98.376938,69.125160,167.655930,1.513973,0.824628,2.488600,14.056912,-126.650284,-10.025695
635,2147714187,93.044739,69.451942,161.668884,0.582492,0.630699,2.658222,16.333376,-127.698021,-8.627530
636,2147730854,87.518997,69.541176,155.455811,0.120508,0.517312,2.590034,17.857693,-129.925140,-6.490153
637,2147747521,81.864067,69.358055,149.137131,-0.313634,-0.289326,2.004180,15.911068,-132.855530,-3.180325
638,2147764188,76.198860,68.878906,142.886856,-0.912705,-0.408827,2.313555,10.658265,-136.030991,0.957946
639,2147780855,70.725159,68.105698,136.898148,-0.696157,-0.455884,3.017253,6.031697,-138.839661,5.112638
640,2147797522,65.597755,67.052788,131.333786,-1.258425,-0.347109,3.185172,1.101174,-141.061874,9.397391
641,2147814189,60.890842,65.744102,126.323532,-1.190780,-0.046919,2.039656,-6.860165,-142.203766,14.043297
642,2147830856,56.641804,64.207916,121.919876,-0.406888,-0.159833,1.073483,-15.478196,-142.757324,18.964922
643,2147847523,52.813545,62.480461,118.117821,-0.520306,-0.630975,1.285675,-25.799423,-142.812729,23.636299
644,2147864190,49.419540,60.615715,114.882072,0.543255,-1.739448,1.229591,-32.963779,-141.665573,27.163191
645,2147880857,46.475502,58.664242,112.147636,0.408348,-2.113246,1.204376,-35.124847,-139.454590,29.563520
646,2147897524,44.006310,56.647518,109.849243,0.486937,-3.203650,1.463120,-31.727510,-137.068436,32.172596
647,2147914191,42.027973,54.570023,107.922287,0.588102,-4.145959,1.286418,-23.407385,-135.202927,35.525780
648,2147930858,40.497421,52.436546,106.314629,-0.598945,-4.192964,0.733053,-14.433538,-133.622009,39.581051
649,2147947525,39.353802,50.267414,105.004997,-0.203637,-3.757454,0.433109,-7.425674,-130.915558,44.205147
650,2147964192,38.505527,48.080463,103.969223,0.344996,-2.796063,1.055835,-4.079192,-127.260674,49.190472
651,2147980859,37.880428,45.897800,103.200684,0.728793,-2.524007,0.835371,-4.013597,-122.061874,54.628056
652,2147997526,37.504658,43.746475,102.690369,0.832175,-2.650784,1.337946,-1.201256,-115.132332,60.145432
653,2148014193,37.401318,41.636574,102.415604,0.376649,-2.633936,1.584699,4.731424,-107.604248,65.804031
654,2148030860,37.568768,39.560272,102.336777,-0.658134,-2.866830,1.791969,12.865582,-100.805916,71.432198
655,2148047527,38.081871,37.498741,102.406761,-0.806606,-2.250368,2.088001,27.891794,-95.487808,76.941139
656,2148064194,39.185791,35.440952,102.598251,-0.775033,-2.494011,1.353354,59.103924,-90.507156,82.807175
657,2148080861,41.187019,33.386497,102.898888,-0.745015,-2.181793,0.836234,109.555885,-84.433205,89.430817
658,2148097528,44.435013,31.305094,103.267365,0.762389,-1.558604,1.393282,182.700180,-78.827255,97.111732
659,2148114195,48.293079,29.123329,103.608665,1.153002,-0.663026,3.951046,220.810852,-77.461487,105.511223
660,2148130862,51.969517,26.835197,103.895042,0.060377,-1.567706,1.437843,212.176117,-76.312393,113.676811
661,2148147529,56.038799,24.498615,104.226776,0.386379,-0.178022,-1.464249,235.176010,-67.864914,122.569702
662,2148164196,60.595459,22.125725,104.635826,1.117023,1.588461,0.213606,263.323853,-55.595768,131.606857
663,2148180863,65.442978,19.709299,105.120941,1.551599,0.805505,0.330541,280.108917,-41.546444,140.151077
664,2148197530,70.645248,17.259087,105.678360,1.439821,0.925689,0.076200,301.197693,-25.556841,146.825089
665,2148214197,76.130661,14.782617,106.277100,0.795503,1.132899,1.128648,318.894592,-9.409101,150.874710
666,2148230864,81.472687,12.300776,106.851204,0.723710,0.999561,2.187639,312.155853,3.904192,151.183990
667,2148247531,86.508995,9.840385,107.362564,0.554255,0.897522,1.650370,296.008209,14.443094,148.554733
668,2148264198,91.562759,7.422150,107.809921,0.629954,0.422248,1.109249,298.932220,24.024313,144.104248
669,2148280865,96.693520,5.050160,108.188309,1.116080,0.043691,0.315568,305.128815,32.667747,138.911880
670,2148297532,101.816498,2.733569,108.485153,0.870996,-0.377004,-0.076879,305.936035,39.781689,132.923965
671,2148314199,106.875771,0.480805,108.699730,1.747092,-0.255447,-0.508774,302.976562,45.826340,126.371346
672,2148330866,111.874107,-1.707783,108.839355,1.541347,-0.380897,-0.699974,299.796173,51.314381,119.725883
673,2148347533,116.788712,-3.820669,108.914970,1.832109,-0.212577,-0.878749,294.920715,56.187325,112.293114
674,2148364200,121.569786,-5.848667,108.925468,1.562588,-0.293919,-0.532166,286.770966,59.683422,104.597733
675,2148380867,126.137093,-7.780159,108.875992,1.078819,-0.273928,-0.971181,273.546417,61.903446,96.561401
676,2148397534,130.520370,-9.610574,108.777649,1.288767,-0.381696,-0.983212,261.994720,63.314926,88.475464
677,2148414201,134.746033,-11.340646,108.631752,1.334852,-0.375605,-1.494496,251.854843,63.744659,80.924660
678,2148430868,138.815857,-12.967353,108.446564,1.265138,-0.608520,-1.214725,241.773270,63.452480,73.497673
679,2148447535,142.707489,-14.492871,108.228531,1.459313,-0.693703,-1.153027,230.331299,62.614010,66.510040
680,2148464202,146.374969,-15.920616,107.995789,1.360708,-1.052426,-0.889992,216.339661,61.719292,59.464626
681,2148480869,149.887405,-17.265701,107.762085,1.536500,-0.943513,-0.918412,206.707016,61.210209,52.841286
682,2148497536,153.327774,-18.544046,107.542732,1.294730,-0.715268,-0.895580,202.356125,61.295116,46.330238
683,2148514203,156.767303,-19.769253,107.349609,0.955885,-0.047023,-0.861097,202.560257,61.816608,39.799152
684,2148530870,160.218994,-20.946501,107.188759,0.965262,0.058679,-0.718666,203.745392,62.184296,33.194233
685,2148547537,163.548035,-22.080803,107.068588,1.286681,0.090444,-0.826831,197.111252,62.383595,26.431446
686,2148564204,166.580139,-23.176836,106.995811,1.626025,-0.061210,-0.788074,180.272415,62.287800,19.754143
687,2148580871,169.273544,-24.243856,106.979820,1.412701,0.250514,-0.980011,161.263062,62.212429,13.179380
688,2148597538,171.583313,-25.291088,107.030899,1.397113,0.601156,-1.059248,139.929367,62.215046,6.652560
689,2148614205,173.450897,-26.326122,107.155884,1.290664,0.652630,-1.581757,115.397263,62.243393,0.356416
690,2148630872,174.818909,-27.360773,107.360649,1.225962,0.471429,-2.102322,87.722115,62.663155,-5.585757
691,2148647539,175.728958,-28.411510,107.649574,0.904760,0.296855,-2.690934,62.812176,63.878532,-11.083766
692,2148664206,176.254166,-29.494543,108.035217,0.757341,0.445767,-2.997307,42.829216,66.030029,-16.650454
693,2148680873,176.443466,-30.622669,108.530754,0.425002,1.036914,-3.369785,26.374943,68.980316,-22.358501
694,2148697540,176.270203,-31.808329,109.158722,0.568439,1.195652,-3.183379,9.261606,72.826538,-28.617180
695,2148714207,175.990097,-33.068253,109.928764,-0.276721,0.886395,-3.264495,8.115363,77.828125,-34.772556
696,2148730874,175.904602,-34.406731,110.826317,-0.364192,0.377377,-3.097158,24.912786,83.037323,-39.958408
697,2148747541,176.057785,-35.799961,111.829048,0.299937,1.719537,-3.816141,43.917572,86.601204,-44.201286
698,2148764208,176.233780,-37.205681,112.900047,0.577563,2.290746,-2.973078,48.919571,87.373642,-46.815147
699,2148780875,176.230637,-38.581364,114.010445,1.320249,2.722037,-2.389618,40.876644,85.547379,-47.965965
700,2148797542,175.945862,-39.912891,115.163551,1.310784,3.100330,-1.794094,26.855806,83.069534,-48.912685
701,2148814209,175.426147,-41.212269,116.386467,0.729592,3.631536,-1.025694,16.721712,81.617958,-50.600292
702,2148830876,174.774750,-42.495300,117.705772,-0.598628,3.315648,-0.643964,13.943150,81.387009,-53.026501
703,2148847543,174.082169,-43.776512,119.137718,-1.292045,2.424854,-0.282239,17.404406,82.210388,-55.780331
704,2148864210,173.355164,-45.059738,120.700783,-1.320874,2.021729,-0.127401,22.232458,83.444984,-58.999107
705,2148880877,172.571274,-46.334122,122.416756,-1.323502,1.822130,-0.756600,26.861996,84.258385,-62.841633
706,2148897544,171.676117,-47.574539,124.302177,-0.900650,1.603643,-1.099020,29.171995,83.846832,-67.122505
707,2148914211,170.613571,-48.764469,126.382858,-0.688985,1.823781,-1.353977,29.476868,82.887627,-72.102493
708,2148930878,169.342148,-49.897785,128.673828,-0.496884,2.060455,-0.937786,28.189875,82.057159,-77.191536
709,2148947545,167.834961,-50.970028,131.175385,-0.643800,2.360139,-0.295308,25.501747,81.471947,-81.791138
710,2148964212,166.125885,-51.979462,133.879379,-1.278200,2.602399,0.331205,24.612024,81.248985,-85.595840
711,2148980879,164.239273,-52.921295,136.773071,-1.434080,2.678139,1.005971,24.702435,81.139679,-88.623466
712,2148997546,162.171021,-53.781883,139.870178,-1.177726,2.904689,0.963959,25.254421,80.903984,-92.040672
713,2149014213,159.890244,-54.548313,143.172241,-1.168510,2.634741,0.857043,24.046778,80.587273,-95.500130
714,2149030880,157.377853,-55.211887,146.673325,-0.895535,2.489770,0.887435,21.366390,80.480293,-98.777954
715,2149047547,154.637909,-55.761761,150.351166,-0.779325,2.807120,1.186168,17.744501,80.338043,-101.539993
716,2149064214,151.729919,-56.187695,154.179474,-0.946671,2.967408,1.425146,16.223230,80.130783,-103.885468
717,2149080881,148.731705,-56.478844,158.114059,-1.152309,2.458089,2.015391,16.939640,79.466690,-105.613205
718,2149097548,145.700211,-56.625534,162.120667,-1.024730,2.038206,2.063725,19.067772,78.457214,-107.301910
719,2149114215,142.655182,-56.619625,166.189697,-0.930273,1.615242,2.039549,21.561235,77.631332,-109.767609
720,2149130882,139.602280,-56.452980,170.287979,-1.114162,1.211945,1.822685,22.376049,76.619705,-112.480209
721,2149147549,136.564453,-56.115883,174.368179,-1.170256,1.631584,1.844152,21.786068,75.044899,-115.254501
722,2149164216,133.590012,-55.598980,178.380707,-1.404401,0.756643,1.855508,21.234884,72.777336,-118.190498
723,2149180883,130.737762,-54.899483,-177.715286,-1.306509,0.466723,1.889266,21.783873,70.127769,-121.344032
724,2149197550,128.002136,-54.014584,-173.938614,-0.997303,0.287996,1.815306,20.706089,67.492699,-125.198547
725,2149214217,125.329231,-52.950050,-170.330994,-0.683072,0.242517,1.765652,14.068664,64.539970,-128.754471
726,2149230884,122.729065,-51.716465,-166.929077,-1.326091,0.595613,2.015760,6.055607,61.327831,-131.741135
727,2149247551,120.247391,-50.333797,-163.767242,-2.237829,-0.229778,2.630198,-0.907180,57.811543,-133.673676
728,2149264218,117.959679,-48.824837,-160.860870,-2.929737,-0.796155,2.908040,-3.984108,54.153297,-134.728851
729,2149280885,115.928436,-47.209518,-158.207581,-3.052292,-1.508212,2.662665,-3.007344,50.415295,-135.309174
730,2149297552,114.195663,-45.499161,-155.792374,-2.906301,-1.931329,2.437246,1.433602,46.545956,-136.029297
731,2149314219,112.723503,-43.698486,-153.606262,-2.378592,-2.571013,2.029584,4.307350,42.091225,-137.034119
732,2149330886,111.469742,-41.811451,-151.651215,-1.982687,-3.178392,1.775450,4.942102,36.663177,-138.092743
733,2149347553,110.365669,-39.838577,-149.939484,-1.423497,-3.905247,1.611562,1.426838,29.809563,-139.152145
734,2149364220,109.315521,-37.775169,-148.475052,-1.086199,-4.168319,2.279610,-7.431519,21.897192,-140.577316
735,2149380887,108.180519,-35.617428,-147.262543,-1.190314,-4.079667,2.365624,-24.134521,13.172109,-142.277725
736,2149397554,106.971237,-33.376148,-146.301605,-1.411035,-3.803140,1.884415,-39.431625,4.268645,-143.535553
737,2149414221,105.912262,-31.090683,-145.581161,-1.611820,-4.071345,1.181508,-40.028561,-4.134953,-142.912521
738,2149430888,105.473572,-28.802999,-145.059357,-1.587541,-4.329405,0.262134,-10.263553,-11.375018,-140.581940
739,2149447555,106.325310,-26.513477,-144.620712,-1.892538,-3.662566,0.224708,63.712387,-15.554759,-139.657120
740,2149464222,108.551788,-24.168926,-144.132919,-2.929169,-1.143612,3.092306,146.469467,-17.245403,-143.334457
741,2149480889,111.087151,-21.729782,-143.607437,-3.455463,-0.742504,4.299563,164.788910,-22.632717,-148.763641
742,2149497556,112.886116,-19.196205,-143.138657,-2.751862,-0.992466,3.560369,118.176987,-32.806534,-152.088364
743,2149514223,113.933105,-16.586956,-142.754105,-3.100299,1.537146,3.501569,70.337479,-42.375984,-153.681259
744,2149530890,114.540672,-13.932504,-142.454224,-2.373857,1.669021,2.112803,41.670773,-49.877251,-153.658249
745,2149547557,114.726608,-11.253514,-142.244156,-2.121356,2.518751,2.002434,14.429403,-56.125080,-152.554199
746,2149564224,114.839035,-8.575464,-142.107330,-2.285697,1.810242,0.961869,8.732764,-60.304340,-150.596024
747,2149580891,115.242065,-5.918428,-142.022171,-2.191873,1.370487,-0.157166,25.434616,-63.156254,-147.919464
748,2149597558,116.009041,-3.293668,-141.970947,-2.101334,1.624466,0.321517,46.901176,-65.599190,-144.676926
749,2149614225,116.962250,-0.703215,-141.947144,-2.284165,1.228490,0.050956,57.906944,-68.267471,-141.124939
750,2149630892,117.938843,1.854105,-141.936752,-2.472141,1.080327,0.351062,59.282040,-70.390450,-137.846298
751,2149647559,118.918282,4.377283,-141.927490,-2.617327,1.275865,0.014705,59.454319,-71.772575,-134.823181
752,2149664226,119.844688,6.868814,-141.909607,-2.285387,1.417755,-0.583432,56.223011,-72.581406,-132.239914
753,2149680893,120.684593,9.319330,-141.878998,-1.670926,1.485088,-0.922164,50.906231,-72.674644,-129.388672
754,2149697560,121.409813,11.724130,-141.836868,-1.248362,1.361082,-1.744468,43.840794,-72.403305,-126.399574
755,2149714227,122.047356,14.072177,-141.780167,-1.084528,1.059746,-1.890334,38.293678,-71.354439,-123.090668
756,2149730894,122.649422,16.359699,-141.709167,-1.164618,0.858947,-2.147236,35.809772,-70.017403,-119.682739
757,2149747561,123.195000,18.585299,-141.626053,-1.481431,0.953663,-1.856515,32.046520,-68.612686,-116.236732
758,2149764228,123.678131,20.752974,-141.537399,-1.464027,0.969154,-1.968062,28.009562,-67.487396,-112.879951
759,2149780895,124.129059,22.864279,-141.442474,-1.306141,1.083174,-2.091414,25.756355,-66.247643,-109.699150
760,2149797562,124.568489,24.918209,-141.347641,-1.254145,1.203455,-2.119725,24.879065,-65.185806,-106.312080
761,2149814229,124.963066,26.916977,-141.261719,-1.241363,1.373481,-2.576209,22.236658,-64.492462,-102.817375
762,2149830896,125.327484,28.862085,-141.192200,-1.022645,1.553140,-3.021733,20.732075,-64.056183,-99.227295
763,2149847563,125.794479,30.745544,-141.143860,-0.482800,1.389644,-3.796048,27.393549,-63.530876,-95.089226
764,2149864230,126.404671,32.562664,-141.131302,0.202145,1.171207,-4.809232,37.025787,-63.549248,-90.178490
765,2149880897,127.110039,34.310886,-141.180954,0.693439,0.759980,-5.539959,44.755589,-64.567543,-84.266006
766,2149897564,127.681618,36.004757,-141.341888,1.192959,0.304409,-6.280012,40.625767,-67.780403,-77.666908
767,2149914231,127.722275,37.679653,-141.695084,0.668863,0.021579,-6.324417,15.888159,-74.642662,-70.857735
768,2149930898,127.235077,39.376366,-142.288147,0.818450,-0.487175,-6.122249,-6.353753,-83.786858,-65.574295
769,2149947565,126.672813,41.105778,-143.101395,0.967261,-0.175818,-5.056514,-1.536009,-91.890045,-62.255222
770,2149964232,126.272194,42.867138,-144.080795,0.502288,0.876058,-3.805446,15.913769,-97.679321,-60.750450
771,2149980899,125.982407,44.631477,-145.176773,-0.008876,1.785940,-3.565917,28.698639,-100.498657,-59.237267
772,2149997566,125.689964,46.358894,-146.378204,-0.270394,3.028079,-2.721961,34.459122,-101.338135,-56.196808
773,2150014233,125.296997,48.019245,-147.702896,0.025896,3.597611,-1.933068,35.318031,-101.472023,-51.517971
774,2150030900,124.751930,49.607441,-149.180511,0.325874,3.239729,-1.322948,34.608826,-102.119293,-46.311287
775,2150047567,123.961052,51.131920,-150.863251,0.281608,2.992706,-1.478636,30.890593,-104.365959,-40.966064
776,2150064234,122.868111,52.611378,-152.805618,0.923680,2.064525,-1.694787,26.675125,-108.493332,-36.276207
777,2150080901,121.455490,54.044415,-155.036880,0.821560,1.883870,-1.676068,23.176395,-112.978088,-32.039173
778,2150097568,119.728630,55.419609,-157.570236,1.153989,2.020607,-1.423207,21.027153,-117.041031,-28.177845
779,2150114235,117.698105,56.716560,-160.400833,1.514046,2.788208,-0.650019,19.602251,-120.006989,-24.518410
780,2150130902,115.334373,57.922649,-163.518387,1.925903,3.528913,0.003339,16.120195,-122.122513,-21.476778
781,2150147569,112.661995,59.030499,-166.902588,2.683754,3.272279,0.138857,13.231533,-123.416191,-19.356928
782,2150164236,109.762604,60.043846,-170.518219,3.232547,3.075559,0.621338,13.506122,-123.882256,-18.677570
783,2150180903,106.668457,60.968201,-174.366898,3.641806,2.117199,0.963168,15.809139,-124.641335,-18.913439
784,2150197570,103.447220,61.802040,-178.452637,3.586441,1.433613,1.267454,22.368059,-125.649910,-19.553040
785,2150214237,100.114548,62.532192,177.207489,3.105517,1.137533,1.725076,30.727388,-127.218956,-19.778620
786,2150230904,96.649399,63.134007,172.610733,2.871011,0.828325,2.094836,37.869190,-129.090302,-19.059740
787,2150247571,93.067421,63.576298,167.796173,2.614127,0.858104,2.700292,43.651772,-130.563660,-17.153322
788,2150264238,89.391106,63.823330,162.822113,2.298974,0.950552,2.972522,47.327717,-131.747391,-13.661116
789,2150280905,85.651550,63.849693,157.778946,2.112919,0.597766,2.613756,47.549206,-132.440689,-9.033536
790,2150297572,81.945709,63.636246,152.769272,1.465328,-0.105033,2.549353,47.531788,-132.798477,-3.322507
791,2150314239,78.243370,63.170918,147.833496,0.909087,-0.582381,2.571403,42.965355,-134.637726,2.995840
792,2150330906,74.515388,62.438644,142.997635,0.636237,-0.783779,2.463958,34.676315,-138.465714,9.758945
793,2150347573,70.834251,61.436611,138.375961,-0.146330,-1.629250,2.286384,24.083851,-141.695862,16.827829
794,2150364240,67.244843,60.163666,134.089966,-0.558977,-1.666813,1.989470,9.342838,-143.770096,24.713291
795,2150380907,63.794376,58.628445,130.198914,-0.144019,-1.435893,2.393853,-5.890565,-145.668762,32.848911
796,2150397574,60.496460,56.850933,126.711372,-0.213813,-1.962548,2.865341,-20.754301,-147.936615,40.387268
797,2150414241,57.307762,54.863613,123.637733,-0.712095,-2.699813,2.899777,-38.548172,-149.605057,46.935619
798,2150430908,54.245411,52.714211,121.003494,-0.617672,-2.793768,2.153917,-56.106445,-149.166351,52.432266
799,2150447575,51.363533,50.447281,118.807587,-0.773741,-2.547480,1.787641,-69.614365,-146.911880,57.195435
800,2150464242,48.751984,48.096447,117.029839,-0.430846,-2.156619,2.076657,-75.822289,-143.414703,61.828888
801,2150480909,46.526886,45.692730,115.637138,-0.460656,-2.162601,2.001649,-72.489479,-138.893967,66.489990
802,2150497576,44.779835,43.282978,114.622200,-1.374288,-2.231231,1.884986,-62.173397,-131.679962,71.451294
803,2150514243,43.530014,40.902134,113.951202,-0.939098,-1.363299,2.402782,-48.058277,-122.877922,76.505539
804,2150530910,42.778843,38.569313,113.569801,-0.464550,-1.549030,2.412547,-30.527855,-113.736557,81.339928
805,2150547577,42.493622,36.292027,113.418091,-1.161064,-2.137320,2.334390,-11.683959,-105.021446,85.682487
806,2150564244,42.774975,34.051437,113.439026,-0.773699,-2.335983,2.437077,16.025532,-97.849777,90.272415
807,2150580911,43.977261,31.816248,113.566429,-0.325579,-3.248805,2.119387,67.822624,-92.752869,95.240234
808,2150597578,46.690365,29.532154,113.732033,0.782404,-3.432070,3.084533,157.521347,-89.994781,101.972816
809,2150614245,49.898861,27.103882,113.802139,0.742139,-2.099552,6.298996,190.302841,-93.962372,109.760735
810,2150630912,53.098965,24.565290,113.828453,-1.377309,-3.866379,1.007037,191.101746,-93.546715,118.624634
811,2150647579,56.875172,21.975140,113.908157,-0.895852,0.194952,0.830856,224.420364,-85.465546,128.371460
812,2150664246,60.840218,19.350834,114.017426,1.282792,2.376788,3.217794,235.313522,-76.095947,136.496704
813,2150680913,64.886673,16.721519,114.150322,0.684586,0.701231,1.496418,240.068726,-65.124649,142.389389
814,2150697580,69.424355,14.120400,114.317673,1.339433,1.646670,1.118117,269.350372,-51.606560,146.122406
815,2150714247,74.548012,11.554273,114.512512,1.604104,0.787622,0.516448,304.601746,-36.728798,148.480286
816,2150730914,80.091148,9.021809,114.717278,1.805018,0.590644,-0.662604,330.195404,-21.540443,149.435684
817,2150747581,86.097420,6.518863,114.926964,1.888363,0.622133,-0.537303,358.501984,-5.695821,149.137390
818,2150764248,92.259254,4.047135,115.121613,2.368477,0.371565,-0.102286,368.491425,9.450345,147.013428
819,2150780915,98.147835,1.614612,115.269196,1.836622,-0.156935,0.134712,352.768677,21.965609,143.113068
820,2150797582,103.680321,-0.764925,115.358360,1.997939,-0.025654,-0.116729,331.831451,32.167347,137.755402
821,2150814249,108.947144,-3.090241,115.393326,1.685489,-0.536258,-1.066086,316.013702,41.052921,131.899750
822,2150830916,114.017540,-5.365201,115.385307,2.287864,-0.961863,-1.289664,304.161346,49.367336,125.812958
823,2150847583,118.987961,-7.589257,115.344917,2.548423,-1.067729,-1.676207,297.946259,57.198822,119.156036
824,2150864250,123.921516,-9.753226,115.275383,2.055848,-1.041863,-1.958231,295.408264,64.028023,111.614029
825,2150880917,128.829498,-11.854307,115.180077,2.165609,-1.154633,-1.585572,293.446716,70.030060,103.575783
826,2150897584,133.649323,-13.887694,115.056747,1.996551,-1.558185,-1.422606,287.602844,74.784912,95.279854
827,2150914251,138.356842,-15.855415,114.908562,1.764225,-1.512253,-1.683735,280.245361,78.753952,87.015694
828,2150930918,143.128738,-17.771992,114.746689,1.177300,-1.243937,-2.191159,283.589691,82.959282,78.835533
829,2150947585,148.049973,-19.644564,114.579521,0.606714,-1.104530,-2.401779,292.146851,87.140121,70.229752
830,2150964252,153.005173,-21.475344,114.413254,1.163784,-0.920837,-2.208724,293.896088,90.865692,61.100475
831,2150980919,157.764374,-23.262526,114.255913,1.432501,-0.899821,-2.307831,282.052979,93.691254,51.549854
832,2150997586,162.262787,-25.007526,114.119415,1.795420,-0.500468,-2.546155,266.659607,95.697838,41.778664
833,2151014253,166.482758,-26.712629,114.024170,1.530242,-0.165826,-2.662759,250.824905,97.012367,31.506065
834,2151030920,170.230164,-28.374557,113.987503,2.065046,0.150068,-2.661921,223.961914,97.153633,21.047773
835,2151047587,173.177582,-29.992813,114.034843,2.350423,0.589934,-3.119170,178.386932,96.327621,10.591269
836,2151064254,174.818161,-31.574223,114.213593,3.583716,1.247128,-3.658903,104.111145,95.220886,-0.182260
837,2151080921,175.242218,-33.159344,114.577789,1.558779,1.154898,-4.090247,37.372589,96.245422,-11.052287
838,2151097588,175.342636,-34.797188,115.138809,-0.488503,-0.111626,-3.492520,25.083292,100.115799,-20.637012
839,2151114255,175.486832,-36.496059,115.869995,0.325999,0.424503,-4.214662,34.450001,104.351585,-28.265739
840,2151130922,175.516434,-38.221764,116.720268,0.542746,1.162757,-4.275303,32.960171,106.299446,-33.169586
841,2151147589,175.409897,-39.927299,117.626663,0.711173,2.606663,-3.697671,28.118008,105.240524,-34.844727
842,2151164256,175.239151,-41.584179,118.562279,0.323136,3.087134,-2.881557,26.644053,102.413528,-35.107635
843,2151180923,175.076385,-43.195641,119.545235,-0.021540,3.299648,-2.594531,30.243549,99.853767,-36.048939
844,2151197590,175.006958,-44.787376,120.621307,-0.193720,2.758625,-2.086528,40.931278,98.961189,-38.808422
845,2151214257,175.041245,-46.380878,121.827461,-0.442307,2.704876,-1.925567,53.999752,99.416138,-42.929428
846,2151230924,175.139648,-47.968071,123.190178,-1.229709,3.021062,-1.542864,66.125084,99.386032,-47.976383
847,2151247591,175.210754,-49.506435,124.718628,-0.958281,3.254298,-0.577391,73.451096,96.776314,-53.241383
848,2151264258,175.156494,-50.955387,126.437897,-1.109815,3.368088,-0.248877,76.281105,91.853920,-59.172989
849,2151280925,174.859756,-52.301369,128.401459,-0.754354,3.193407,-0.144505,74.813446,86.464981,-66.527283
850,2151297592,174.145203,-53.547001,130.680969,-0.211373,2.992466,0.097551,66.506042,81.913124,-75.589134
851,2151314259,172.890121,-54.690918,133.319641,-0.420995,2.640009,0.624104,53.241791,78.272392,-85.094353
852,2151330926,171.034286,-55.714828,136.309433,-0.448039,2.914521,0.922212,36.243473,74.724228,-93.397263
853,2151347593,168.567047,-56.592716,139.617386,-0.563857,3.508594,1.255967,17.105001,70.974731,-100.067368
854,2151364260,165.549332,-57.303772,143.190948,-1.093827,3.431800,1.390508,-1.028729,67.296471,-104.980385
855,2151380927,162.112000,-57.847340,146.977203,-1.404252,2.922072,1.684748,-14.147708,64.746216,-108.460236
856,2151397594,158.376236,-58.235252,150.950760,-1.437966,2.527231,1.673407,-21.519436,64.031616,-111.440758
857,2151414261,154.436172,-58.476227,155.085068,-1.229962,2.084240,1.783031,-24.860413,64.787643,-114.013504
858,2151430928,150.382019,-58.571461,159.342911,-1.337948,1.654375,1.649126,-24.988159,66.279022,-116.108009
859,2151447595,146.355072,-58.520058,163.658813,-1.468322,1.067401,1.910428,-20.328579,67.661301,-117.196404
860,2151464262,142.455780,-58.322720,167.977936,-1.261530,0.909665,2.164314,-12.784207,68.776840,-117.777061
861,2151480929,138.722092,-57.982494,172.259537,-1.578287,0.110178,2.395894,-5.392945,69.706642,-118.225166
862,2151497596,135.189072,-57.501766,176.483368,-1.700488,0.232546,2.389634,2.736684,70.669655,-119.083778
863,2151514263,131.864883,-56.876812,-179.327057,-1.656824,1.293159,2.005657,12.226916,72.364807,-121.544380
864,2151530930,128.773499,-56.095688,-175.229355,-1.565967,0.033020,1.557846,19.928782,72.605843,-124.118202
865,2151547597,126.003510,-55.159870,-171.310287,-1.339079,0.182869,1.005317,28.306351,70.823830,-125.774986
866,2151564264,123.543205,-54.067482,-167.610321,-1.234063,0.880694,1.329713,33.797783,67.670090,-127.715752
867,2151580931,121.369019,-52.818413,-164.141907,-1.643328,0.819101,1.477536,37.149452,63.835381,-130.309021
868,2151597598,119.453522,-51.412884,-160.909592,-2.039058,0.337524,1.768718,38.588291,59.491035,-133.567444
869,2151614265,117.790947,-49.854889,-157.929977,-2.222411,-0.623408,1.911354,38.926426,54.237930,-136.941208
870,2151630932,116.375999,-48.156651,-155.208191,-2.605512,-1.364959,1.630337,38.832932,48.481579,-140.072357
871,2151647599,115.197533,-46.324799,-152.727982,-2.469242,-1.350288,1.497530,39.028290,42.665184,-143.537552
872,2151664266,114.207306,-44.373962,-150.463989,-2.531399,-1.342965,1.248240,37.708149,37.339245,-146.887558
873,2151680933,113.410492,-42.323929,-148.410202,-2.768602,-1.895746,1.047833,37.269070,31.867317,-149.393478
874,2151697600,112.784904,-40.184673,-146.575089,-3.037467,-2.102634,1.865698,35.565617,25.342117,-151.266602
875,2151714267,112.214828,-37.960140,-144.973679,-3.364928,-2.808426,2.828804,26.861269,17.404263,-152.633331
876,2151730934,111.461067,-35.641472,-143.628220,-3.132113,-3.619511,3.545015,3.645972,7.825931,-154.016556
877,2151747601,110.353027,-33.222630,-142.552475,-2.308525,-4.462282,3.563007,-29.469654,-2.471075,-155.480392
878,2151764268,109.214294,-30.716682,-141.716599,-2.022599,-5.745484,2.552773,-41.268768,-11.251327,-156.864365
879,2151780935,108.576317,-28.142931,-141.064911,-1.699574,-6.467731,2.114048,-18.600117,-18.155695,-158.197464
880,2151797602,109.329002,-25.513826,-140.499191,-1.875365,-7.420932,1.222400,60.887936,-22.926525,-160.182587
881,2151814269,112.014145,-22.778170,-139.841888,-4.366031,-2.230004,3.771247,177.573425,-24.594446,-167.529373
882,2151830936,114.853127,-19.859600,-139.093109,-5.236633,1.179246,7.856270,187.019684,-31.576731,-178.619736
883,2151847603,115.580528,-16.730032,-138.437088,-4.910273,-1.224365,6.190777,56.443573,-46.540257,-187.113144
884,2151864270,114.543983,-13.450876,-137.955719,-4.861078,-0.370909,4.029552,-54.158970,-58.437263,-191.411591
885,2151880937,113.551079,-10.126408,-137.611099,-3.016562,-0.559285,0.607517,-54.788921,-63.145702,-191.835999
886,2151897604,113.188080,-6.813933,-137.387405,-2.586760,1.431482,1.389338,-19.226427,-66.965614,-189.176086
887,2151914271,113.159943,-3.533548,-137.276947,-3.416548,2.527388,2.055901,-0.480305,-71.680077,-185.037415
888,2151930938,113.428612,-0.306960,-137.249191,-2.366422,1.727148,0.944028,16.835934,-75.295815,-179.990356
889,2151947605,113.870781,2.849567,-137.272049,-3.400257,2.588154,1.658853,27.253544,-77.461060,-174.472443
890,2151964272,114.463509,5.927814,-137.316727,-2.808544,1.220290,0.588716,36.512234,-78.246918,-168.975174
891,2151980939,115.169205,8.921876,-137.366241,-3.138390,1.481573,0.228967,43.492798,-78.232605,-163.414124
892,2151997606,115.999191,11.816611,-137.405396,-2.539529,1.150404,-0.825037,51.021942,-77.219795,-157.285095
893,2152014273,117.004639,14.591098,-137.423172,-1.686750,0.552981,-2.264669,61.386223,-75.313248,-150.175034
894,2152030940,118.307236,17.227987,-137.412231,-1.794673,0.240689,-1.951747,78.793419,-72.952026,-142.120850
895,2152047607,119.731934,19.736588,-137.375000,-1.708429,0.025140,-2.138171,85.588226,-71.219910,-134.369766
896,2152064274,121.116730,22.139790,-137.313660,-2.020620,0.173763,-1.599632,82.581902,-70.095100,-127.831291
897,2152080941,122.518730,24.444063,-137.221680,-2.026181,0.083243,-1.826717,82.747459,-68.609840,-121.941734
898,2152097608,123.883858,26.657419,-137.096191,-2.385983,0.974534,-2.559919,79.467094,-67.052681,-116.663376
899,2152114275,125.318100,28.779709,-136.927841,-1.926200,1.735072,-2.969065,82.170837,-64.950363,-111.747742
900,2152130942,127.041245,30.800770,-136.713348,-0.306920,2.614017,-4.788022,97.816055,-62.550312,-106.355560
901,2152147609,129.246246,32.693817,-136.461136,1.765072,2.303445,-6.051872,125.160568,-59.989491,-99.162041
902,2152164276,132.074188,34.434185,-136.187073,1.925126,1.603759,-6.566410,161.385361,-57.580536,-90.014305
903,2152180943,134.981857,36.035866,-135.930008,1.402482,1.269276,-6.578039,166.329346,-56.977997,-80.208076
904,2152197610,137.508011,37.535378,-135.725311,2.238267,-1.396703,-6.205623,144.971909,-58.108929,-71.177895
905,2152214277,140.106689,38.841068,-135.720154,-5.390094,4.554728,-3.198854,156.435623,-58.745113,-53.619473
906,2152230944,141.464355,40.152557,-135.899750,2.682538,1.141560,-7.689384,89.084000,-66.158943,-45.211010
907,2152247611,140.992874,41.551620,-136.326050,-1.806445,1.981074,-4.590432,-10.818852,-77.469933,-39.366631
908,2152264278,140.146240,43.000816,-136.986465,2.152932,-1.467553,-6.410175,-23.400896,-85.663231,-34.495831
909,2152280945,139.305283,44.496101,-137.871735,0.480498,0.230935,-5.878977,-13.041220,-93.133469,-30.624109
910,2152297612,138.517426,46.018074,-138.966125,-0.366334,1.280558,-4.894425,0.021266,-99.070114,-27.088320
911,2152314279,137.682465,47.519939,-140.227890,1.741037,1.215502,-5.110051,5.699192,-101.549324,-23.508762
912,2152330946,136.723724,48.958878,-141.623627,-0.220800,3.328117,-3.448967,5.545119,-101.070259,-19.648493
913,2152347613,135.533463,50.336861,-143.147873,1.836805,3.471030,-3.318624,-1.119790,-100.425423,-16.543873
914,2152364280,133.959137,51.702778,-144.845840,3.183365,3.204154,-2.376520,-14.677109,-102.941093,-15.012700
915,2152380947,131.938293,53.096699,-146.759537,3.474691,2.391345,-1.172750,-29.715151,-107.937111,-15.373933
916,2152397614,129.646301,54.522507,-148.888031,3.572387,1.395890,-0.179145,-33.911697,-112.602654,-17.353199
917,2152414281,127.280525,55.957275,-151.216507,2.670076,1.537610,-0.171597,-26.668901,-115.501053,-19.672039
918,2152430948,124.892807,57.378773,-153.756638,2.640811,2.427362,-0.324867,-15.457900,-117.465935,-21.383186
919,2152447615,122.441132,58.767693,-156.535629,2.731128,2.391041,0.228176,-5.134740,-119.088188,-22.230652
920,2152464282,119.885529,60.110023,-159.579865,2.406914,2.395022,0.717931,4.378077,-120.616554,-22.587667
921,2152480949,117.181892,61.405811,-162.920074,1.947168,2.158648,1.175813,13.063053,-122.578865,-23.250408
922,2152497616,114.296982,62.649925,-166.584274,1.530975,2.156733,1.671968,21.460987,-124.707344,-24.156900
923,2152514283,111.182472,63.833466,-170.630066,2.070401,2.404633,1.607205,30.253801,-127.613846,-24.938745
924,2152530950,107.827942,64.933189,-175.086685,1.806891,1.897516,1.778685,40.204590,-130.341553,-25.275570
925,2152547617,104.192375,65.904114,-179.950302,1.706790,1.110078,2.040759,47.577858,-132.062622,-24.192142
926,2152564284,100.236015,66.712135,174.802002,2.087826,1.653575,2.323883,51.257729,-133.209885,-22.293535
927,2152580951,95.961029,67.329842,169.181564,2.135088,1.991225,2.847169,54.269203,-134.839981,-19.822760
928,2152597618,91.378517,67.727615,163.242477,1.843182,2.244301,2.634553,54.623573,-136.706848,-16.782087
929,2152614285,86.599457,67.872177,157.124298,0.661676,2.236560,1.530714,53.404881,-137.758270,-12.821200
930,2152630952,81.837456,67.740273,151.050644,0.149831,1.706549,1.597838,51.949947,-136.966858,-7.731510
931,2152647619,77.154167,67.318985,145.167099,-0.057976,1.405400,2.773522,45.447063,-136.481155,-1.524733
932,2152664286,72.582237,66.602005,139.556839,0.424787,-0.009733,3.714820,35.663303,-137.609482,5.319682
933,2152680953,68.135178,65.590660,134.289383,-0.179429,-0.938838,4.336251,22.305193,-140.226593,12.272929
934,2152697620,63.873493,64.296188,129.445908,0.007468,-2.621598,3.734197,7.716441,-143.270065,19.066622
935,2152714287,59.867264,62.736038,125.086761,-0.530823,-2.489845,3.489716,-6.145210,-146.275192,25.737873
936,2152730954,56.140213,60.934761,121.230217,-0.462421,-2.466394,3.535610,-19.538908,-149.227676,31.984589
937,2152747621,52.713974,58.940498,117.885025,-0.551267,-2.283043,3.511188,-31.808523,-150.769562,37.052898
938,2152764288,49.589046,56.806892,115.058456,-0.160154,-2.828026,3.106927,-43.853737,-149.957260,41.374348
939,2152780955,46.748882,54.587708,112.738380,0.728087,-2.780805,2.735723,-55.433315,-146.719391,45.176067
940,2152797622,44.182369,52.322548,110.870667,1.344188,-2.842521,2.325813,-64.002380,-142.379257,48.411816
941,2152814289,41.912540,50.042965,109.390823,1.012924,-3.365691,2.192647,-67.067589,-137.469299,51.074745
942,2152830956,39.975182,47.779682,108.239281,-0.213914,-3.529940,1.651955,-64.244431,-131.893921,53.124722
943,2152847623,38.439144,45.557678,107.369598,-0.709261,-3.282673,1.132665,-54.310715,-125.544029,55.000381
944,2152864290,37.416519,43.385048,106.740829,-0.455051,-2.756399,1.150011,-35.061382,-119.019516,57.386436
945,2152880957,36.981670,41.262074,106.320618,-0.478667,-2.965518,0.671460,-9.274127,-112.414886,60.681301
946,2152897624,37.099991,39.187279,106.083275,-0.622351,-2.689740,0.384516,16.113777,-105.641365,64.848648
947,2152914291,37.614380,37.143291,106.002357,-1.037094,-2.168175,0.638906,33.658710,-99.562447,69.935379
948,2152930958,38.358692,35.103039,106.041382,-0.941055,-2.149957,0.740314,43.050789,-95.113091,75.400047
949,2152947625,39.454227,33.053013,106.184883,-0.684853,-2.084136,0.488623,60.657612,-91.067741,81.373543
950,2152964292,41.550476,30.983999,106.429680,0.163860,-2.472507,-0.109198,117.712700,-86.171051,88.685814
951,2152980959,45.106659,28.840313,106.716675,1.141680,-1.541948,1.980066,204.474243,-83.228416,97.730263
952,2152997626,48.769096,26.540148,106.937592,-0.289029,-1.341247,3.443552,213.293549,-85.599419,107.488960
953,2153014293,52.551292,24.129131,107.163651,-0.986507,-1.928148,-1.407351,220.820267,-82.192795,118.306473
954,2153030960,56.842342,21.657763,107.476280,-0.200942,0.441470,-1.031485,249.828568,-71.590897,129.680771
955,2153047627,61.082397,19.120659,107.848351,2.313840,1.216370,2.113516,246.284515,-60.560646,139.898209
956,2153064294,65.334137,16.529575,108.283897,2.394562,-0.298346,-0.180504,246.800232,-47.871025,148.667435
957,2153080961,70.127281,13.905723,108.804604,2.798887,0.412914,0.596849,279.103851,-31.769327,155.818863
958,2153097628,75.559906,11.260376,109.391914,1.861441,-0.464552,0.968173,318.031128,-13.968970,160.532120
959,2153114295,81.215622,8.612107,109.981110,1.108423,-0.801220,2.489655,333.014984,2.105144,161.402588
960,2153130962,86.714645,5.981065,110.513695,1.488515,-0.324656,2.510323,325.673065,14.885969,159.081726
961,2153147629,92.090523,3.378230,110.981430,1.654340,-0.429060,0.955601,320.075378,26.295359,155.224945
962,2153164296,97.538734,0.797365,111.407364,2.426057,-0.748687,0.317309,325.797119,38.393333,150.950760
963,2153180963,103.251434,-1.764269,111.806221,2.344988,-1.619862,-0.501869,342.828278,51.212128,145.676392
964,2153197630,109.215912,-4.302055,112.167274,2.158881,-1.664758,-0.310296,358.901215,63.281651,139.009338
965,2153214297,115.253212,-6.796764,112.463615,2.274256,-1.091516,-0.556933,363.866730,72.970329,130.751953
966,2153230964,121.154716,-9.232121,112.679543,2.210885,-1.294648,-0.667740,355.833527,80.317833,121.629372
967,2153247631,126.712593,-11.596889,112.811020,2.756152,-1.450059,-0.743974,334.842255,85.593681,112.329140
968,2153264298,131.930222,-13.884548,112.875107,2.607959,-1.701904,-1.202789,313.904907,89.850937,102.778168
969,2153280965,137.035782,-16.096706,112.898506,2.194685,-1.380872,-1.960467,306.721771,93.962883,92.747444
970,2153297632,142.188660,-18.233109,112.901070,1.993141,-1.017746,-2.279219,309.261475,97.745941,81.973007
971,2153314299,147.387619,-20.300117,112.896782,1.926028,-0.860402,-2.459879,311.914734,101.226639,70.752373
972,2153330966,152.544510,-22.303936,112.898705,1.852267,-0.195234,-2.515657,309.538574,104.203133,59.136707
973,2153347633,157.533554,-24.251255,112.928810,1.466275,0.232547,-2.529473,300.159393,106.704369,46.861088
974,2153364300,162.076874,-26.136200,113.004280,1.560665,0.811159,-2.930457,274.646240,107.640488,34.261032
975,2153380967,165.753693,-27.950964,113.146248,2.193266,1.439849,-3.148552,224.626770,106.801353,21.942118
976,2153397634,167.892471,-29.688517,113.401093,2.688521,2.293196,-4.041724,135.878937,104.621292,9.800189
977,2153414301,168.711884,-31.387821,113.821701,1.196319,1.509811,-4.096947,62.212914,104.283600,-1.509166
978,2153430968,168.990952,-33.105087,114.434128,-0.101232,0.947117,-4.069945,36.587517,107.123329,-11.447401
979,2153447635,169.348938,-34.862881,115.224213,-0.999890,0.922691,-3.863490,48.207775,110.986382,-19.662144
980,2153464302,169.859055,-36.638004,116.146042,-0.679143,1.970281,-3.863958,63.136017,112.858810,-25.806421
981,2153480969,170.313354,-38.382401,117.155136,0.011106,2.696234,-3.435209,64.331337,111.343010,-30.161112
982,2153497636,170.619324,-40.067142,118.222786,-0.073367,2.682726,-2.991131,59.078323,107.851669,-33.053101
983,2153514303,170.769226,-41.682026,119.354004,0.277774,2.481148,-2.363651,53.626266,103.830338,-35.824574
984,2153530970,170.765854,-43.233215,120.585449,-0.067458,2.655022,-2.201868,49.892414,100.493103,-39.697414
985,2153547637,170.593140,-44.727612,121.967300,-0.254753,3.121422,-2.054676,47.440041,98.002151,-45.165829
986,2153564304,170.209000,-46.169338,123.517456,-0.522535,3.063681,-2.078058,43.461857,95.995987,-50.707153
987,2153580971,169.639084,-47.558708,125.231995,-0.904386,3.018964,-2.177320,41.111092,94.170433,-55.449955
988,2153597638,168.945435,-48.887810,127.096817,-0.908430,3.111169,-1.892121,42.058773,91.958893,-59.201172
989,2153614305,168.166580,-50.148151,129.103119,-0.770635,2.753443,-1.513231,45.073269,89.336647,-62.353561
990,2153630972,167.291702,-51.341118,131.258835,-0.581058,3.132092,-1.218580,47.905712,87.024765,-65.508209
991,2153647639,166.277084,-52.472115,133.601044,-0.360840,3.463032,-0.764893,49.975780,85.537033,-69.618378
992,2153664306,165.077347,-53.537106,136.156479,-0.689384,3.243388,-0.034451,50.743771,84.360245,-74.292503
993,2153680973,163.663895,-54.521332,138.928635,-0.693093,2.805621,0.710249,50.084949,82.782257,-78.855545
994,2153697640,162.018021,-55.406685,141.926865,-0.797854,2.368718,1.020036,48.829067,80.794777,-83.664902
995,2153714307,160.107025,-56.181137,145.171524,-0.153089,2.179435,1.247725,46.643394,79.019699,-89.083679
996,2153730974,157.886139,-56.831108,148.668076,-0.582493,1.917309,1.476112,42.010929,77.444916,-94.721909
997,2153747641,155.374573,-57.339725,152.394333,-0.744383,2.004318,2.035136,37.313316,75.737076,-100.016197
998,2153764308,152.563293,-57.692028,156.302109,-0.990326,2.332067,2.586110,29.435930,73.781311,-104.456100
999,2153780975,149.514725,-57.879166,160.351776,-1.680084,2.144670,2.596783,23.006596,72.061035,-108.460381
1000,2153797642,146.286896,-57.893974,164.494354,-1.574554,1.985602,2.344828,17.213465,70.458336,-112.010551
1001,2153814309,142.955704,-57.732025,168.677170,-1.299905,1.590644,2.004266,12.890231,68.964172,-115.171989
1002,2153830976,139.645462,-57.388870,172.857407,-1.698025,1.085324,1.644338,13.446206,67.532578,-118.412872
1003,2153847643,136.369659,-56.863960,176.971191,-1.314384,0.804776,2.298158,11.146360,65.703773,-121.186340
1004,2153864310,133.165268,-56.168453,-179.028030,-1.532940,0.467294,2.284194,8.348595,64.121048,-123.434631
1005,2153880977,130.069672,-55.309208,-175.179810,-1.978009,0.386259,2.130397,5.501829,62.421803,-125.421318
1006,2153897644,127.093948,-54.300335,-171.509003,-2.268692,0.721704,1.918836,1.858696,60.969894,-127.047173
1007,2153914311,124.277695,-53.157078,-168.042465,-2.776455,0.543960,1.608950,-0.854922,59.409664,-128.074936
1008,2153930978,121.706635,-51.905651,-164.785538,-3.090753,0.028628,1.333352,1.275006,58.290371,-128.307877
1009,2153947645,119.451584,-50.575081,-161.729309,-2.780913,-0.492043,0.954902,8.138713,57.681877,-127.763893
1010,2153964312,117.530075,-49.184597,-158.844757,-2.279583,-0.732795,0.420720,17.515512,57.681240,-127.185608
1011,2153980979,115.925552,-47.749058,-156.115768,-1.681456,-0.771704,-0.068791,26.764347,57.698517,-126.443130
1012,2153997646,114.592995,-46.278290,-153.534546,-1.570375,-0.296086,-0.160983,33.805634,57.327145,-125.570885
1013,2154014313,113.484245,-44.781124,-151.105865,-1.794525,-0.936346,-0.199404,37.938026,56.131065,-124.336670
1014,2154030980,112.571297,-43.263199,-148.819931,-2.199671,-0.724319,0.116675,41.017189,54.652786,-123.131111
1015,2154047647,111.815094,-41.721046,-146.663086,-2.606979,-0.761976,0.426484,42.530888,52.922794,-122.471291
1016,2154064314,111.187126,-40.153065,-144.633621,-2.816140,-0.921478,0.640554,42.605961,50.626038,-122.017654
1017,2154080981,110.628502,-38.559738,-142.751007,-2.426841,-1.683021,0.988569,38.629360,47.006935,-121.278381
1018,2154097648,110.083099,-36.936131,-141.037964,-1.860817,-3.019018,1.691216,30.719858,41.849415,-120.441368
1019,2154114315,109.439911,-35.258480,-139.502838,-1.751311,-3.684225,3.368541,16.190035,35.567383,-120.778015
1020,2154130982,108.551819,-33.489147,-138.146515,-1.618410,-3.865713,4.754019,-6.838172,28.535223,-123.180046
1021,2154147649,107.313896,-31.614288,-136.993683,-1.249962,-4.208976,5.168983,-36.567905,20.433178,-125.977142
1022,2154164316,105.779015,-29.650663,-136.084244,-0.823369,-4.049255,4.536196,-63.818352,11.077081,-127.375160
1023,2154180983,104.100273,-27.640535,-135.448853,-0.478295,-3.556145,3.653974,-82.004852,0.875160,-126.281799
1024,2154197650,102.570244,-25.633989,-135.082886,-0.215338,-2.852094,2.219249,-81.536736,-8.998626,-122.853149
1025,2154214317,101.641907,-23.669127,-134.928345,-0.484124,-2.075000,0.949770,-51.439339,-16.786041,-118.257294
1026,2154230984,101.890205,-21.742836,-134.871078,-1.423399,-1.082025,1.335678,16.596889,-20.746998,-115.043312
1027,2154247651,103.126518,-19.819183,-134.833069,-2.860571,0.061248,3.682441,75.360725,-23.191637,-114.416954
1028,2154264318,104.670898,-17.880903,-134.831024,-2.982444,-0.697017,3.317235,93.101799,-28.105354,-114.219589
1029,2154280985,106.135612,-15.931387,-134.897888,-2.772120,-0.499065,2.356525,87.141586,-35.051140,-113.083069
1030,2154297652,107.593018,-13.982349,-135.038391,-2.569125,0.386157,1.150039,85.717094,-42.008610,-110.912910
1031,2154314319,108.912148,-12.035417,-135.253494,-1.729787,0.850253,0.806236,76.720490,-48.820431,-108.380966
1032,2154330986,109.974953,-10.089344,-135.533447,-2.126971,1.228094,0.380772,61.046730,-54.692616,-106.001030
1033,2154347653,110.918236,-8.144737,-135.857162,-1.739526,0.519920,-0.212946,54.057354,-59.006126,-104.026436
1034,2154364320,111.888741,-6.203161,-136.204605,-2.230301,0.624350,-0.782563,56.183762,-62.036724,-102.329102
1035,2154380987,112.983719,-4.262213,-136.561432,-2.038033,0.105160,-0.958439,64.326309,-64.415741,-100.942413
1036,2154397654,114.185875,-2.322824,-136.917816,-1.986216,0.216918,-1.085443,71.495361,-66.379929,-99.565834
1037,2154414321,115.350105,-0.384749,-137.268021,-1.956446,0.327980,-0.699385,69.967812,-68.045616,-98.273354
1038,2154430988,116.360733,1.550184,-137.609833,-1.906708,0.468516,-0.548313,61.471676,-69.332596,-97.040993
1039,2154447655,117.162727,3.482022,-137.938248,-2.028012,0.916316,-0.391109,49.627586,-70.009224,-96.163498
1040,2154464322,117.738449,5.407539,-138.252228,-2.078813,1.282290,-0.621341,36.666920,-70.148567,-95.421196
1041,2154480989,118.131050,7.325467,-138.545731,-2.151934,1.457268,-0.798302,26.197954,-69.585205,-95.041267
1042,2154497656,118.424797,9.232759,-138.815948,-2.034707,1.397968,-1.074382,20.674505,-68.536041,-94.776451
1043,2154514323,118.662384,11.125662,-139.062210,-1.678087,1.249778,-0.992523,17.604593,-67.214966,-94.439049
1044,2154530990,118.900307,13.003296,-139.284470,-1.328611,1.202299,-0.951784,17.816256,-65.819702,-94.099770
1045,2154547657,119.202171,14.865277,-139.479492,-1.258806,1.172005,-0.790518,21.691301,-64.302208,-93.803589
1046,2154564324,119.614594,16.709658,-139.645584,-1.614688,1.267439,-0.664851,28.227972,-62.794067,-93.364449
1047,2154580991,120.140923,18.533655,-139.779984,-1.923932,1.270206,-0.695223,34.806053,-61.264065,-92.754738
1048,2154597658,120.795036,20.331936,-139.880859,-2.122204,1.398339,-0.792590,42.055851,-59.686401,-91.818932
1049,2154614325,121.597542,22.099159,-139.945724,-1.969361,1.518980,-1.101801,50.366108,-58.058731,-90.557724
1050,2154630992,122.576614,23.830267,-139.970413,-1.626529,1.567480,-1.416506,60.145477,-56.349602,-89.040916
1051,2154647659,123.758347,25.512587,-139.960953,-1.105142,1.444946,-1.755535,71.499832,-54.789646,-86.562119
1052,2154664326,125.112595,27.139248,-139.923065,-0.895934,1.419383,-2.048762,81.084152,-53.490730,-83.450890
1053,2154680993,126.560059,28.707254,-139.865387,-0.741747,1.333197,-2.369896,86.068222,-52.572376,-79.873695
1054,2154697660,128.038803,30.223434,-139.793915,-0.741542,1.298818,-2.652304,87.453430,-52.110008,-76.456123
1055,2154714327,129.474289,31.695309,-139.715485,-0.454198,1.425378,-3.341574,84.542892,-52.078659,-73.236412
1056,2154730994,130.823990,33.134869,-139.636490,0.061295,1.356126,-3.801195,79.275482,-52.561504,-70.452164
1057,2154747661,132.061996,34.550491,-139.580154,0.832181,1.642261,-4.470459,73.219681,-54.025829,-67.385071
1058,2154764328,133.034241,35.967621,-139.578995,1.348541,2.447662,-4.646394,59.106129,-57.344124,-64.529953
1059,2154780995,133.365540,37.433208,-139.691956,1.194723,2.996432,-4.345795,24.727533,-64.005768,-62.220058
1060,2154797662,133.260544,38.953796,-139.936523,1.684256,0.995741,-4.774373,3.566747,-70.776039,-60.301144
1061,2154814329,133.214767,40.507114,-140.302933,0.137006,-0.517318,-5.276073,12.070052,-75.933113,-58.128983
1062,2154830996,133.334900,42.086411,-140.789551,-0.967088,-0.783255,-5.635842,27.203314,-80.697083,-55.782505
1063,2154847663,133.559860,43.673672,-141.392624,-0.774511,-0.512687,-4.828379,38.818577,-84.522575,-52.764389
1064,2154864330,133.797745,45.249073,-142.104706,-0.777744,0.539579,-3.807215,44.869755,-87.124908,-49.183556
1065,2154880997,133.995300,46.798172,-142.925919,-0.242706,0.784813,-2.563730,47.950176,-88.880669,-45.161983
1066,2154897664,134.145416,48.304676,-143.857178,0.326169,1.942129,-1.224687,50.864727,-89.751213,-40.637234
1067,2154914331,134.191299,49.775993,-144.922440,0.896031,2.144847,-0.519979,51.625923,-91.328697,-36.065128
1068,2154930998,134.054459,51.223671,-146.147720,1.419931,1.671943,-0.285647,49.108746,-93.784088,-31.733168
1069,2154947665,133.685425,52.656818,-147.564209,1.763050,1.535264,-0.157638,45.341587,-97.087219,-27.613653
1070,2154964332,133.043137,54.079861,-149.201843,2.252630,1.607336,0.041369,40.850510,-100.951355,-23.742908
1071,2154980999,132.104660,55.482105,-151.077469,2.201963,1.699534,0.411222,36.138489,-104.390312,-19.957510
1072,2154997666,130.862076,56.847301,-153.193069,2.074061,1.577902,0.489005,31.367577,-106.860779,-16.439220
1073,2155014333,129.301254,58.163250,-155.554733,2.074414,1.490605,0.579900,26.323236,-108.710327,-13.275680
1074,2155031000,127.372673,59.430637,-158.196915,2.217520,1.750472,0.983115,20.316885,-111.193275,-10.565807
1075,2155047667,125.038773,60.647984,-161.161240,2.452265,1.738661,1.469037,14.467777,-114.389343,-8.316361
1076,2155064334,122.312149,61.802197,-164.461594,2.216507,1.300811,1.520597,10.363131,-117.265610,-6.601446
1077,2155081001,119.219933,62.866447,-168.102585,1.917512,1.256774,1.720836,8.319969,-119.336342,-4.786461
1078,2155097668,115.778145,63.815727,-172.087708,2.004509,1.245562,1.978910,7.529633,-120.952499,-2.776342
1079,2155114335,111.971802,64.628563,-176.427551,2.013637,1.329877,2.150437,6.425180,-122.757050,-0.538024
1080,2155131002,107.812859,65.281837,178.896286,1.877251,0.969307,2.184386,4.963750,-124.466362,1.795465
1081,2155147669,103.331200,65.751770,173.922607,1.584664,0.924253,1.979642,2.985731,-126.123817,4.290398
1082,2155164336,98.587433,66.018127,168.720795,0.971173,0.956598,1.872360,0.518386,-127.644341,6.806141
1083,2155181003,93.669861,66.067345,163.382797,0.972353,1.224036,1.593694,-2.107486,-129.023483,9.199817
1084,2155197670,88.699905,65.887543,158.024628,0.729226,1.128623,1.240223,-4.313015,-130.011108,11.733153
1085,2155214337,83.798141,65.473434,152.785995,0.422183,0.486774,0.879126,-7.446191,-130.167847,14.557854
1086,2155231004,79.082184,64.832031,147.755661,0.051511,0.167968,0.588330,-8.868929,-130.513000,17.402779
1087,2155247671,74.559090,63.975636,142.963058,-0.385189,0.121763,0.880891,-11.860213,-132.051331,19.926130
1088,2155264338,70.234764,62.912292,138.435516,-0.317967,-0.097725,1.228083,-16.302784,-134.440033,22.293613
1089,2155281005,66.168839,61.654274,134.246216,-0.369206,-0.546821,1.334320,-21.299295,-135.967697,24.882446
1090,2155297672,62.433578,60.217155,130.449341,-0.323320,-0.575517,1.099667,-24.877785,-136.521912,27.920755
1091,2155314339,59.054581,58.625618,127.063828,-0.596465,-0.237471,1.170856,-27.775324,-136.247284,31.031790
1092,2155331006,56.019951,56.907383,124.070755,-0.530039,-0.428397,1.097799,-30.118362,-135.588074,33.798767
1093,2155347673,53.290016,55.094269,121.457092,-0.538256,-0.718344,1.105915,-33.759823,-133.910828,36.243275
1094,2155364340,50.826481,53.217106,119.195152,0.374999,-1.065024,1.383288,-37.806194,-131.390121,38.208916
1095,2155381007,48.642906,51.296772,117.246658,1.121733,-2.168014,1.070594,-38.592175,-128.557129,39.939167
1096,2155397674,46.777103,49.343376,115.576813,1.242028,-2.673773,1.447466,-34.882580,-125.692558,41.969666
1097,2155414341,45.278069,47.363720,114.155006,1.290535,-3.157329,1.633489,-26.258307,-122.798035,44.480656
1098,2155431008,44.162632,45.363270,112.975166,0.946490,-3.096278,1.762745,-15.771811,-119.238449,48.149780
1099,2155447675,43.357239,43.355316,112.035576,0.610832,-2.067756,2.008613,-9.002974,-114.512306,52.661919
1100,2155464342,42.870899,41.353764,111.345634,0.728742,-1.708906,1.251768,-1.399091,-108.224884,58.219803
1101,2155481009,42.662495,39.361317,110.888580,1.052452,-0.841646,1.472000,5.138792,-101.624847,64.331459
1102,2155497676,42.733604,37.368763,110.638504,0.802425,-1.475065,1.238992,13.466795,-95.528343,70.947647
1103,2155514343,43.088787,35.360813,110.562469,0.357181,-2.122423,1.311147,23.901182,-90.447418,77.879768
1104,2155531010,43.682026,33.326752,110.614273,-0.300568,-2.410970,1.542698,33.720074,-86.672325,84.261177
1105,2155547677,44.515820,31.261097,110.758713,-0.923147,-2.450484,1.202216,45.259102,-83.682312,90.089722
1106,2155564344,45.642681,29.169210,110.970322,-1.038614,-1.994696,0.713820,61.057747,-80.669792,95.215767
1107,2155581011,47.180275,27.061899,111.220009,-0.817888,-1.562470,0.600920,85.008308,-77.451385,99.291756
