sep=,
DeviceTag:,Xsens DOT
FirmwareVersion:,2.2.1
AppVersion:,2023.6.0
SyncStatus:,Synced
OutputRate:,60Hz
FilterProfile:,General
Measurement Mode:,Custom modes - custom mode1
StartTime: ,2023-12-12_15:44:41_805 CET
© Movella Technologies B. V. 2005-2023

PacketCounter,SampleTimeFine,Euler_X,Euler_Y,Euler_Z,FreeAcc_X,FreeAcc_Y,FreeAcc_Z,Gyr_X,Gyr_Y,Gyr_Z
1,2137163976,-7.026188,-2.046087,41.857311,0.637091,-0.377812,0.824778,-9.711780,-1.303561,22.369326
2,2137180643,-7.129643,-2.020530,42.241295,0.577515,-0.260910,0.830830,-6.865793,-1.283673,22.468843
3,2137197310,-7.192220,-1.995956,42.632977,0.488808,-0.186162,0.820661,-4.406392,-1.433007,22.917242
4,2137213977,-7.218119,-1.972149,43.031242,0.399138,-0.082107,0.789774,-2.201377,-1.545115,23.289961
5,2137230644,-7.216582,-1.948967,43.438557,0.306598,0.049230,0.771968,-0.546025,-1.655941,23.828127
6,2137247311,-7.195370,-1.927310,43.857391,0.192477,0.180751,0.755322,0.649110,-1.828123,24.502176
7,2137263978,-7.165854,-1.906354,44.285076,0.135110,0.342459,0.649749,1.155846,-1.924786,25.022694
8,2137280645,-7.136086,-1.887599,44.723999,0.105689,0.477272,0.583217,1.184494,-2.126653,25.683456
9,2137297312,-7.111537,-1.870853,45.172070,0.124287,0.617181,0.609553,0.881380,-2.301064,26.211248
10,2137313979,-7.092607,-1.854139,45.625057,0.128770,0.614212,0.456170,0.546006,-2.329442,26.512081
11,2137330646,-7.079573,-1.836603,46.082741,0.146309,0.589968,0.370501,0.193139,-2.306160,26.789461
12,2137347313,-7.068850,-1.817757,46.543407,0.197292,0.586957,0.306701,0.051591,-2.243960,26.977320
13,2137363980,-7.057194,-1.797461,47.004150,0.234179,0.568691,0.212081,0.098475,-2.152036,26.993572
14,2137380647,-7.041387,-1.777931,47.461220,0.230243,0.540072,0.143450,0.331307,-2.163792,26.777140
15,2137397314,-7.018773,-1.756759,47.915337,0.167051,0.507282,0.066318,0.724643,-2.034870,26.615074
16,2137413981,-6.988282,-1.735462,48.364399,0.139844,0.462652,0.003337,1.178450,-1.976908,26.313545
17,2137430648,-6.950263,-1.714424,48.808388,0.119795,0.417670,-0.023281,1.610780,-1.938514,26.008123
18,2137447315,-6.906389,-1.693883,49.245426,0.103365,0.305568,-0.077638,1.940275,-1.898699,25.596664
19,2137463982,-6.858848,-1.674397,49.674664,0.125238,0.132944,-0.131061,2.137762,-1.884228,25.126173
20,2137480649,-6.807221,-1.656199,50.094185,0.149703,0.213279,-0.154471,2.357385,-1.868988,24.537979
21,2137497316,-6.759015,-1.636271,50.505760,0.067271,0.438654,-0.215637,2.130808,-1.687381,24.077581
22,2137513983,-6.721665,-1.614092,50.911133,-0.047424,0.559898,-0.192178,1.459510,-1.491072,23.728464
23,2137530650,-6.702834,-1.591515,51.313389,-0.193520,0.588218,-0.184906,0.333664,-1.432534,23.539606
24,2137547317,-6.700470,-1.567022,51.714191,-0.382329,0.353882,-0.255162,-0.666572,-1.304188,23.479446
25,2137563984,-6.697848,-1.538119,52.114712,-0.534506,0.074718,-0.215624,-0.663255,-1.037931,23.488100
26,2137580651,-6.684863,-1.510094,52.515305,-0.651277,-0.004945,-0.266565,-0.053979,-1.087108,23.484848
27,2137597318,-6.659477,-1.478604,52.920052,-0.575208,-0.065166,-0.183064,0.683406,-0.902235,23.760698
28,2137613985,-6.619380,-1.444633,53.332878,-0.481127,-0.052801,-0.090852,1.564088,-0.796774,24.258869
29,2137630652,-6.561992,-1.410149,53.758553,-0.351293,0.040564,-0.004967,2.605631,-0.833145,25.025259
30,2137647319,-6.485967,-1.370021,54.201359,-0.402071,-0.011847,-0.012424,3.731889,-0.584112,26.088552
31,2137663986,-6.393054,-1.328520,54.664181,-0.613930,-0.104477,0.064816,4.754056,-0.597648,27.288809
32,2137680653,-6.280562,-1.287344,55.142582,-0.612920,-0.236555,0.094657,5.929684,-0.670850,28.221048
33,2137697320,-6.142393,-1.249089,55.635723,-0.556953,-0.393413,0.158073,7.469564,-0.878224,29.082308
34,2137713987,-5.971542,-1.214577,56.141457,-0.598127,-0.485405,0.194372,9.427625,-1.101798,29.812626
35,2137730654,-5.769260,-1.184029,56.658607,-0.543895,-0.534735,0.235646,11.309962,-1.309902,30.470892
36,2137747321,-5.542564,-1.157529,57.185307,-0.493016,-0.579664,0.269451,12.770921,-1.492970,31.025906
37,2137763988,-5.304223,-1.139010,57.719353,-0.453794,-0.519142,0.338217,13.465261,-1.883796,31.423618
38,2137780655,-5.061987,-1.125578,58.259125,-0.466610,-0.490280,0.325808,13.696557,-2.085536,31.750053
39,2137797322,-4.825756,-1.119542,58.804192,-0.512095,-0.584672,0.366901,13.336812,-2.420577,32.035698
40,2137813989,-4.596009,-1.118549,59.354256,-0.582430,-0.538422,0.417503,12.951097,-2.614300,32.313179
41,2137830656,-4.375264,-1.127009,59.905704,-0.569314,-0.470457,0.425914,12.414675,-3.057939,32.366398
42,2137847323,-4.167915,-1.142466,60.458534,-0.491381,-0.481078,0.442880,11.619051,-3.360452,32.427025
43,2137863990,-3.975819,-1.165271,61.009525,-0.364798,-0.493653,0.489909,10.712012,-3.677320,32.292526
44,2137880657,-3.800975,-1.193730,61.555584,-0.226148,-0.523593,0.485086,9.685860,-3.892109,31.998774
45,2137897324,-3.644372,-1.227803,62.098251,-0.113242,-0.518654,0.501452,8.604472,-4.120394,31.775406
46,2137913991,-3.503883,-1.269804,62.631874,-0.043168,-0.475829,0.447150,7.647461,-4.477987,31.213152
47,2137930658,-3.378273,-1.315203,63.157085,-0.097768,-0.426161,0.449178,6.768237,-4.577927,30.709255
48,2137947325,-3.266268,-1.364217,63.673141,-0.087401,-0.396408,0.489948,5.964827,-4.697999,30.156075
49,2137963992,-3.171202,-1.417408,64.177864,-0.010542,-0.273556,0.466678,4.959524,-4.855121,29.471928
50,2137980659,-3.095978,-1.472806,64.672028,0.087060,-0.214703,0.452924,3.782027,-4.907856,28.836304
51,2137997326,-3.034267,-1.532794,65.156990,0.153049,-0.190087,0.489370,2.986840,-5.118751,28.278133
52,2138013993,-2.984924,-1.592912,65.629517,0.122946,-0.213968,0.386742,2.255262,-5.059508,27.533657
53,2138030660,-2.947128,-1.652029,66.092659,0.111042,-0.226171,0.393606,1.576139,-4.949039,26.975847
54,2138047327,-2.913381,-1.710568,66.546318,0.095473,-0.184964,0.358952,1.345227,-4.868448,26.416561
55,2138063994,-2.884240,-1.768088,66.992439,0.053411,-0.192456,0.263606,1.083170,-4.770057,25.968903
56,2138080661,-2.858665,-1.822966,67.431908,-0.001696,-0.204660,0.254933,0.882673,-4.578960,25.575731
57,2138097328,-2.835445,-1.874746,67.865463,0.035917,-0.138371,0.291288,0.754853,-4.365119,25.241791
58,2138113995,-2.815948,-1.923985,68.292778,-0.048504,-0.130751,0.243571,0.542011,-4.184638,24.871964
59,2138130662,-2.797052,-1.962445,68.700996,4.022857,-2.134433,0.882608,0.486828,-3.474228,23.760544
60,2138147329,-2.710215,-2.090180,68.821388,9.253747,0.108551,2.060753,3.992989,-7.975708,6.268141
61,2138163996,-2.488449,-2.172737,68.873825,-0.593936,1.678539,-0.664443,11.961540,-5.065401,2.342993
62,2138180663,-2.372591,-2.242916,68.996460,-2.921626,-1.997775,1.345545,5.772598,-4.490612,6.588824
63,2138197330,-2.275645,-2.341168,69.096062,0.351379,0.971430,-1.174856,4.590034,-6.106876,5.150197
64,2138213997,-2.181706,-2.372578,69.224518,1.434234,-0.530642,-0.263684,4.487775,-2.155886,7.044000
65,2138230664,-2.085905,-2.433830,69.325050,-0.666769,-0.200143,0.609894,4.537604,-3.871207,5.310570
66,2138247331,-2.003415,-2.490070,69.407753,0.268712,0.644706,-0.260124,3.697981,-3.523347,4.256888
67,2138263998,-1.978817,-2.506224,69.505196,0.625265,-1.080348,0.360235,0.266660,-1.145246,5.230607
68,2138280665,-1.952050,-2.526354,69.534172,1.253652,-0.611576,-0.382001,0.218969,-1.241819,1.116707
69,2138297332,-1.912100,-2.538672,69.552811,-0.459247,0.930116,-0.230919,0.984354,-0.752079,0.515155
70,2138313999,-1.890545,-2.526758,69.568634,0.784950,-0.939640,-0.271370,-0.127039,0.707954,0.395556
71,2138330666,-1.869892,-2.514518,69.576218,0.163867,0.041910,-0.022552,-0.202404,0.743018,-0.099621
72,2138347333,-1.862403,-2.479941,69.581467,0.135321,0.069639,-0.427008,-0.998383,2.087301,-0.195963
73,2138364000,-1.862547,-2.447875,69.573334,0.698863,-0.370155,0.204206,-1.491005,1.963066,-1.004466
74,2138380667,-1.875985,-2.414446,69.552071,0.651901,-0.355264,0.451171,-2.320741,2.069859,-1.785833
75,2138397334,-1.900435,-2.366251,69.523621,-0.558366,-0.370427,0.122789,-2.997941,2.969159,-2.184674
76,2138414001,-1.926559,-2.328298,69.485260,0.422902,-0.314675,0.221100,-3.122214,2.375469,-2.797855
77,2138430668,-1.959980,-2.287999,69.448288,-0.120668,0.000883,0.038532,-3.554698,2.514085,-2.711886
78,2138447335,-2.010148,-2.229240,69.415138,-0.415175,-0.358946,-0.088649,-4.548509,3.614317,-2.443734
79,2138464002,-2.077995,-2.183149,69.387177,-0.081004,-0.060125,-0.098729,-5.596107,2.845398,-2.153977
80,2138480669,-2.166647,-2.124484,69.362518,-0.010588,-0.425011,0.007616,-6.835660,3.593853,-1.923168
81,2138497336,-2.264320,-2.062780,69.325066,0.320001,-0.312850,0.106809,-7.403288,3.807399,-2.678768
82,2138514003,-2.368226,-2.002894,69.287666,-0.280244,-0.023057,0.153787,-7.774570,3.701645,-2.673455
83,2138530670,-2.481890,-1.934013,69.256638,-0.219564,-0.294718,-0.063357,-8.344645,4.228549,-2.261256
84,2138547337,-2.594494,-1.864120,69.226585,0.079810,-0.202345,-0.083763,-8.277259,4.289533,-2.188439
85,2138564004,-2.702590,-1.796861,69.202713,-0.099786,-0.110504,0.164758,-7.992599,4.117659,-1.822434
86,2138580671,-2.806704,-1.726299,69.180809,-0.048470,-0.230726,-0.032141,-7.748549,4.311829,-1.683549
87,2138597338,-2.902039,-1.658170,69.161339,-0.012159,-0.218822,0.134589,-7.215918,4.160329,-1.537134
88,2138614005,-2.985708,-1.586316,69.146568,-0.142731,-0.098662,0.071630,-6.506677,4.370303,-1.236377
89,2138630672,-3.057524,-1.515702,69.138359,-0.096349,-0.109770,0.067726,-5.783976,4.276457,-0.847742
90,2138647339,-3.116055,-1.448914,69.133682,-0.001885,-0.102890,0.211961,-4.981094,4.036068,-0.645760
91,2138664006,-3.167112,-1.384478,69.131905,-0.013461,-0.079425,0.110301,-4.528172,3.885799,-0.475820
92,2138680673,-3.209177,-1.327152,69.132729,-0.071416,-0.100935,0.243572,-3.984607,3.450345,-0.334335
93,2138697340,-3.244847,-1.273409,69.135422,-0.098280,-0.072912,0.278642,-3.598674,3.229384,-0.233537
94,2138714007,-3.272729,-1.224190,69.138451,-0.119307,-0.053670,0.199285,-3.131063,2.956787,-0.224931
95,2138730674,-3.293717,-1.179223,69.143082,-0.089080,-0.035735,0.316625,-2.716010,2.696922,-0.148554
96,2138747341,-3.312654,-1.140834,69.147255,-0.087217,-0.012234,0.313631,-2.593529,2.303958,-0.199280
97,2138764008,-3.329071,-1.108501,69.152153,-0.086853,-0.005792,0.307245,-2.442030,1.938440,-0.171503
98,2138780675,-3.343787,-1.082786,69.157249,-0.106919,-0.023689,0.365407,-2.339899,1.541238,-0.182900
99,2138797342,-3.359564,-1.063071,69.164124,-0.113266,0.020039,0.316911,-2.401997,1.175604,-0.093832
100,2138814009,-3.376140,-1.048973,69.171181,-0.145952,-0.014863,0.322036,-2.449727,0.838233,-0.104794
101,2138830676,-3.396382,-1.039423,69.178375,-0.145667,-0.043910,0.347283,-2.669855,0.565548,-0.114399
102,2138847343,-3.419352,-1.033983,69.188232,-0.126077,-0.016114,0.353057,-2.831087,0.309626,0.030050
103,2138864010,-3.446627,-1.035182,69.198006,-0.163583,0.002684,0.375954,-3.089558,-0.088172,0.007498
104,2138880677,-3.478523,-1.039797,69.211411,-0.174299,0.042499,0.337377,-3.363062,-0.305841,0.206458
105,2138897344,-3.517283,-1.047318,69.225670,-0.197843,0.035579,0.356968,-3.774173,-0.483747,0.247899
106,2138914011,-3.562716,-1.060536,69.243835,-0.194313,0.007156,0.371369,-4.170336,-0.839815,0.460792
107,2138930678,-3.611807,-1.074558,69.263306,-0.202222,-0.002118,0.325837,-4.388134,-0.893896,0.536439
108,2138947345,-3.667572,-1.091193,69.287827,-0.242743,-0.020186,0.352085,-4.782865,-1.070406,0.824902
109,2138964012,-3.728841,-1.108929,69.315903,-0.243741,-0.007636,0.350746,-5.108927,-1.151419,1.033197
110,2138980679,-3.799199,-1.129145,69.347427,-0.253010,0.002412,0.338573,-5.650009,-1.315366,1.231849
111,2138997346,-3.878125,-1.147906,69.383835,-0.278810,-0.007964,0.345429,-6.158037,-1.249733,1.522246
112,2139014013,-3.967355,-1.167400,69.422096,-0.276601,-0.007925,0.348161,-6.773664,-1.304814,1.634993
113,2139030680,-4.067830,-1.186831,69.463943,-0.251414,0.005628,0.336561,-7.443244,-1.320053,1.849615
114,2139047347,-4.177549,-1.205828,69.507751,-0.272851,-0.028601,0.339492,-7.995071,-1.306735,1.967024
115,2139064014,-4.294734,-1.223895,69.557129,-0.276268,-0.044653,0.328593,-8.435455,-1.280494,2.296211
116,2139080681,-4.418588,-1.241080,69.609306,-0.273337,-0.105933,0.309210,-8.831326,-1.246660,2.463616
117,2139097348,-4.545603,-1.259004,69.664360,-0.251382,-0.091016,0.321707,-9.016723,-1.311153,2.629791
118,2139114015,-4.675127,-1.274990,69.722054,-0.208402,-0.012028,0.324135,-9.162984,-1.215233,2.795582
119,2139130682,-4.805780,-1.291654,69.782814,-0.202737,-0.018053,0.334191,-9.225966,-1.278714,2.971900
120,2139147349,-4.935140,-1.306757,69.845558,-0.167920,-0.043036,0.330832,-9.144750,-1.203708,3.097288
121,2139164016,-5.060349,-1.320641,69.910378,-0.140348,-0.049609,0.336843,-8.892308,-1.149434,3.221982
122,2139180683,-5.180235,-1.336073,69.977951,-0.106143,-0.073552,0.315928,-8.568346,-1.265076,3.376824
123,2139197350,-5.292197,-1.350191,70.046364,-0.070924,-0.016058,0.315216,-8.090707,-1.198931,3.425603
124,2139214017,-5.396430,-1.364097,70.116112,-0.026852,0.095537,0.302560,-7.624300,-1.201313,3.509651
125,2139230684,-5.492949,-1.377610,70.184647,-0.011775,0.103653,0.292998,-7.162247,-1.177967,3.436617
126,2139247351,-5.580947,-1.391088,70.249687,0.052939,0.014668,0.289735,-6.654873,-1.162189,3.227400
127,2139264018,-5.657979,-1.403824,70.311935,0.116173,-0.059561,0.299386,-6.000173,-1.107148,3.065117
128,2139280685,-5.722377,-1.415628,70.368256,0.176132,-0.084809,0.286255,-5.249899,-1.020372,2.712622
129,2139297352,-5.772779,-1.427294,70.419411,0.213381,-0.088285,0.280343,-4.417180,-0.984834,2.405564
130,2139314019,-5.809078,-1.438776,70.466591,0.216355,-0.082287,0.302024,-3.575930,-0.952050,2.168109
131,2139330686,-5.830389,-1.449716,70.507523,0.251275,-0.042247,0.271735,-2.685172,-0.883164,1.796725
132,2139347353,-5.839877,-1.461238,70.541702,0.279948,-0.025748,0.296247,-1.985304,-0.877491,1.392185
133,2139364020,-5.836285,-1.472390,70.568687,0.333998,-0.081496,0.277633,-1.210866,-0.811628,0.960790
134,2139380687,-5.822372,-1.483653,70.584023,0.336135,-0.075706,0.216580,-0.608967,-0.747340,0.268543
135,2139397354,-5.797992,-1.495307,70.589149,0.335928,-0.035914,0.227901,0.003695,-0.708652,-0.341136
136,2139414021,-5.764289,-1.505072,70.582489,0.300551,0.019082,0.198099,0.545237,-0.524522,-1.032589
137,2139430688,-5.719270,-1.515342,70.567039,0.286071,0.021134,0.185337,1.210475,-0.502700,-1.556483
138,2139447355,-5.666382,-1.524786,70.542648,0.318190,0.066241,0.203270,1.668559,-0.401172,-2.087704
139,2139464022,-5.605255,-1.532982,70.508369,0.303569,0.122530,0.193816,2.147413,-0.269177,-2.670341
140,2139480689,-5.537774,-1.540520,70.468170,0.240216,0.158249,0.161076,2.519170,-0.197845,-3.023401
141,2139497356,-5.465469,-1.545999,70.420433,0.166513,0.189668,0.156517,2.796375,-0.034231,-3.459622
142,2139514023,-5.390677,-1.549836,70.367943,0.130513,0.181841,0.144483,2.938065,0.087294,-3.733282
143,2139530690,-5.314115,-1.552783,70.308609,0.103152,0.195597,0.151348,3.032999,0.174749,-4.136682
144,2139547357,-5.236471,-1.554162,70.245544,0.047106,0.199957,0.141112,3.091856,0.284487,-4.353327
145,2139564024,-5.160819,-1.552747,70.178383,-0.025571,0.224995,0.137189,2.965944,0.469257,-4.582458
146,2139580691,-5.089149,-1.548592,70.107658,-0.067069,0.222152,0.131760,2.721100,0.646804,-4.778344
147,2139597358,-5.024433,-1.542433,70.036980,-0.086901,0.159918,0.120635,2.304215,0.761895,-4.769867
148,2139614025,-4.967793,-1.536312,69.966949,-0.124870,0.132039,0.108816,1.821287,0.752187,-4.732178
149,2139630692,-4.918176,-1.527013,69.897964,-0.155105,0.109583,0.131660,1.402058,0.932539,-4.652649
150,2139647359,-4.873078,-1.516103,69.831543,-0.197082,0.089795,0.133239,1.135341,1.012912,-4.491533
151,2139664026,-4.833181,-1.503230,69.768829,-0.250965,0.114452,0.162652,0.829819,1.108486,-4.259341
152,2139680693,-4.795730,-1.490845,69.711319,-0.255797,0.078243,0.185888,0.691895,1.050998,-3.952436
153,2139697360,-4.758736,-1.478441,69.653641,-0.267013,-0.007301,0.196713,0.664323,1.050473,-3.959403
154,2139714027,-4.716494,-1.467668,69.600410,-0.292316,-0.033117,0.191930,0.986416,0.928825,-3.704442
155,2139730694,-4.667664,-1.456107,69.548431,-0.325346,-0.036735,0.191312,1.384066,0.967603,-3.626567
156,2139747361,-4.609503,-1.445207,69.500755,-0.351460,-0.075508,0.175842,1.950516,0.904032,-3.373513
157,2139764028,-4.541994,-1.435358,69.458725,-0.367810,-0.055591,0.188792,2.519989,0.811045,-3.045696
158,2139780695,-4.467039,-1.428239,69.423820,-0.384950,-0.026156,0.194320,2.977483,0.611010,-2.628465
159,2139797362,-4.385963,-1.422944,69.395889,-0.458711,-0.058788,0.214892,3.354566,0.466836,-2.222594
160,2139814029,-4.301692,-1.420403,69.381111,-0.552498,-0.132230,0.211561,3.565397,0.240087,-1.449333
161,2139830696,-4.213950,-1.419985,69.376564,-0.674413,-0.185411,0.203962,3.788241,0.066177,-0.847166
162,2139847363,-4.128963,-1.419449,69.381386,-0.754403,-0.135195,0.234468,3.635973,0.031382,-0.284852
163,2139864030,-4.050395,-1.420338,69.396469,-0.777253,-0.120082,0.236143,3.265280,-0.097239,0.321984
164,2139880697,-3.982592,-1.423168,69.423294,-0.730986,-0.150937,0.219766,2.635745,-0.261634,1.013629
165,2139897364,-3.931856,-1.426261,69.463966,-0.701434,-0.171422,0.255996,1.631407,-0.333068,1.840791
166,2139914031,-3.902264,-1.430246,69.519493,-0.728263,-0.119843,0.253060,0.384261,-0.445904,2.730269
167,2139930698,-3.897638,-1.434291,69.593231,-0.754947,-0.086916,0.243393,-1.087093,-0.522922,3.821383
168,2139947365,-3.924735,-1.439816,69.683960,-0.795186,-0.099861,0.257400,-2.965490,-0.682156,4.835121
169,2139964032,-3.987519,-1.447607,69.783432,-0.734890,-0.093868,0.246936,-5.093701,-0.858141,5.343676
170,2139980699,-4.086370,-1.456649,69.892258,-0.655947,-0.111688,0.280579,-7.243580,-0.981031,5.900431
171,2139997366,-4.219370,-1.468272,70.007660,-0.590348,-0.092871,0.309367,-9.282520,-1.176814,6.275786
172,2140014033,-4.384541,-1.480689,70.130028,-0.484288,-0.106508,0.284886,-11.201004,-1.273541,6.683517
173,2140030700,-4.575756,-1.494756,70.259605,-0.409379,-0.145336,0.285369,-12.751305,-1.428549,7.101337
174,2140047367,-4.784245,-1.509654,70.397423,-0.315505,-0.142260,0.290133,-13.773533,-1.545702,7.588453
175,2140064034,-5.005751,-1.526246,70.541809,-0.245973,-0.131286,0.274803,-14.541921,-1.711481,7.966551
176,2140080701,-5.232913,-1.544127,70.690849,-0.184142,-0.102090,0.304109,-14.871455,-1.847113,8.234280
177,2140097368,-5.459968,-1.562073,70.840797,-0.070465,-0.147385,0.285505,-14.861284,-1.890975,8.281472
178,2140114035,-5.682541,-1.582662,70.991837,-0.028913,-0.147643,0.256701,-14.587636,-2.090127,8.318020
179,2140130702,-5.894305,-1.601560,71.143295,-0.005764,-0.052085,0.270585,-13.935192,-2.025275,8.343698
180,2140147369,-6.092842,-1.621647,71.296089,-0.000030,0.013560,0.213507,-13.136114,-2.136806,8.412250
181,2140164036,-6.273837,-1.643235,71.449928,0.010519,0.034159,0.210485,-12.078460,-2.262423,8.455457
182,2140180703,-6.437574,-1.664421,71.602928,0.024820,-0.010662,0.189751,-11.041065,-2.259848,8.399901
183,2140197370,-6.584318,-1.684353,71.753494,0.007405,0.025911,0.170494,-10.022614,-2.193089,8.260837
184,2140214037,-6.711855,-1.703508,71.902092,0.005525,0.083861,0.180964,-8.870296,-2.153913,8.140468
185,2140230704,-6.822851,-1.720596,72.047668,0.029237,0.059407,0.171391,-7.880287,-2.027720,7.974933
186,2140247371,-6.918533,-1.736527,72.192162,0.013544,-0.096721,0.168497,-6.961215,-1.965801,7.908827
187,2140264038,-6.999540,-1.750183,72.334656,-0.059742,-0.150797,0.168892,-6.081904,-1.829183,7.803828
188,2140280705,-7.055282,-1.773098,72.417030,4.743280,-1.710918,1.955170,-4.674075,-1.950446,4.163479
189,2140297372,-7.047019,-1.807875,72.424507,-0.205545,1.391056,-0.754772,-0.965957,-2.109513,-0.391080
190,2140314039,-7.033326,-1.853669,72.443291,-0.757830,-0.165450,-0.172894,-0.618188,-2.846621,0.200477
191,2140330706,-7.036900,-1.880886,72.468147,0.218434,-0.405648,0.636551,-1.642760,-1.784834,0.701026
192,2140347373,-7.031795,-1.894362,72.493935,-0.012005,0.306355,-0.549145,-1.119211,-0.974871,0.860106
193,2140364040,-7.008682,-1.914015,72.508835,-0.095393,0.117347,0.211231,-0.060113,-1.261746,0.165349
194,2140380707,-6.998178,-1.925356,72.530235,-0.075382,-0.283987,0.234092,-0.803330,-0.813523,0.612188
195,2140397374,-7.002419,-1.919482,72.550201,-0.663364,-0.196777,-0.645968,-1.691130,0.221659,0.652029
196,2140414041,-6.998172,-1.913557,72.556053,1.151113,-0.450336,0.456760,-1.210879,0.327490,-0.186396
197,2140430708,-6.986214,-1.902307,72.546799,-0.224702,0.439580,0.030958,-0.777051,0.754237,-1.046573
198,2140447375,-6.973823,-1.884799,72.536461,-0.122780,-0.122856,-0.129595,-0.753679,1.136019,-1.066718
199,2140464042,-6.960807,-1.862471,72.521156,0.285466,-0.106538,0.049468,-0.725429,1.458547,-1.327404
200,2140480709,-6.944707,-1.832609,72.506828,-0.024089,0.024704,0.025660,-0.537816,1.899854,-1.215976
201,2140497376,-6.922856,-1.796137,72.488213,0.056348,-0.214797,0.067678,-0.200496,2.324141,-1.422363
202,2140514043,-6.894170,-1.760794,72.467545,-0.021469,0.020152,0.142202,0.206778,2.271033,-1.552565
203,2140530710,-6.857345,-1.713036,72.447350,-0.064168,-0.060307,0.055088,0.696813,3.006835,-1.439600
204,2140547377,-6.812402,-1.664724,72.424217,0.036468,-0.062021,0.084794,1.179305,3.060148,-1.610885
205,2140564044,-6.766943,-1.615540,72.403801,-0.119427,-0.099879,0.223794,1.216545,3.091946,-1.446849
206,2140580711,-6.724290,-1.561344,72.382698,-0.167359,-0.177585,0.138251,1.047707,3.394150,-1.451113
207,2140597378,-6.686784,-1.507236,72.363976,-0.242516,-0.230517,0.220657,0.743850,3.371791,-1.314623
208,2140614045,-6.657677,-1.454597,72.347137,-0.280816,-0.164040,0.271100,0.243737,3.270402,-1.214618
209,2140630712,-6.637348,-1.401034,72.329704,-0.091732,-0.249524,0.341672,-0.283584,3.329171,-1.247275
210,2140647379,-6.624042,-1.353689,72.309410,-0.148842,-0.063485,0.375270,-0.708102,2.977943,-1.459680
211,2140664046,-6.619938,-1.309223,72.289757,-0.232923,-0.073184,0.316796,-1.258877,2.801677,-1.441816
212,2140680713,-6.627676,-1.268976,72.272202,-0.212389,-0.188677,0.426354,-1.965506,2.535497,-1.343937
213,2140697380,-6.642282,-1.235534,72.254875,-0.173246,-0.084463,0.413224,-2.377179,2.128550,-1.378066
214,2140714047,-6.660020,-1.203495,72.235077,-0.169335,-0.065823,0.415141,-2.567776,2.061816,-1.531089
215,2140730714,-6.678961,-1.178503,72.216530,-0.153502,-0.090358,0.496685,-2.638159,1.634173,-1.509958
216,2140747381,-6.698425,-1.160853,72.197334,-0.093763,-0.026482,0.438014,-2.670239,1.200999,-1.599167
217,2140764048,-6.713679,-1.149163,72.176514,-0.071349,-0.001457,0.462883,-2.419171,0.857840,-1.738385
218,2140780715,-6.720504,-1.144833,72.153809,-0.042500,0.004742,0.522702,-1.915471,0.432234,-1.897517
219,2140797382,-6.719686,-1.147739,72.128113,0.008821,0.062230,0.473003,-1.460718,0.022686,-2.130016
220,2140814049,-6.707509,-1.157559,72.099541,0.012686,0.075250,0.533824,-0.782442,-0.369707,-2.348262
221,2140830716,-6.682383,-1.174951,72.067284,0.064773,0.120814,0.502755,-0.010680,-0.795313,-2.622369
222,2140847383,-6.646500,-1.198780,72.028687,0.106557,0.143344,0.469062,0.626442,-1.135936,-3.041188
223,2140864050,-6.597211,-1.227137,71.983238,0.115125,0.179188,0.458044,1.421102,-1.359932,-3.479217
224,2140880717,-6.537055,-1.261402,71.928596,0.126176,0.269933,0.451591,2.059959,-1.651340,-4.068385
225,2140897384,-6.466727,-1.298933,71.864807,0.151984,0.305973,0.458532,2.656210,-1.787767,-4.632569
226,2140914051,-6.389389,-1.341820,71.789825,0.200297,0.311328,0.397523,3.058970,-2.037119,-5.332193
227,2140930718,-6.306827,-1.385298,71.698647,0.206992,0.325794,0.413707,3.346127,-1.970859,-6.300046
228,2140947385,-6.221766,-1.433294,71.591858,0.215598,0.347025,0.365017,3.468915,-2.145999,-7.260242
229,2140964052,-6.138869,-1.482480,71.467453,0.273607,0.437296,0.316003,3.307196,-2.113125,-8.309313
230,2140980719,-6.059155,-1.533012,71.326874,0.302755,0.525994,0.277385,3.084570,-2.100114,-9.287091
231,2140997386,-5.982583,-1.586316,71.168633,0.349078,0.566066,0.241929,2.859960,-2.165657,-10.354093
232,2141014053,-5.906224,-1.638216,70.991058,0.401377,0.637609,0.214260,2.806301,-1.974228,-11.495458
233,2141030720,-5.823928,-1.689552,70.792633,0.479174,0.758999,0.150662,3.117651,-1.827070,-12.733594
234,2141047387,-5.725673,-1.742718,70.578644,0.624696,0.880286,0.099923,4.036981,-1.860905,-13.666128
235,2141064054,-5.599069,-1.794734,70.350517,0.727500,0.877515,0.057521,5.700784,-1.733379,-14.499475
236,2141080721,-5.430378,-1.840723,70.107040,0.791398,0.934334,0.044849,8.186384,-1.319657,-15.375154
237,2141097388,-5.209901,-1.881013,69.850197,0.816444,0.806070,0.023410,11.257342,-0.953959,-16.138252
238,2141114055,-4.939015,-1.913553,69.578720,0.747428,0.586602,-0.030743,14.244444,-0.479138,-16.966356
239,2141130722,-4.619761,-1.935564,69.296082,0.547464,0.505914,-0.133570,17.117228,0.122691,-17.575726
240,2141147389,-4.258776,-1.947946,69.004402,0.435243,0.451000,-0.185130,19.598434,0.640005,-18.070267
241,2141164056,-3.869215,-1.952619,68.707802,0.294032,0.314843,-0.251131,21.300877,1.008227,-18.335680
242,2141180723,-3.463615,-1.947974,68.408836,0.129585,0.286045,-0.249585,22.258673,1.452379,-18.450548
243,2141197390,-3.056621,-1.932257,68.111008,-0.106405,0.192854,-0.246939,22.347984,1.985406,-18.352449
244,2141214057,-2.658054,-1.905406,67.815529,-0.307127,-0.032217,-0.225922,21.853579,2.520854,-18.191586
245,2141230724,-2.278829,-1.867920,67.522133,-0.410596,-0.086853,-0.194528,20.706509,3.033519,-18.055735
246,2141247391,-1.923145,-1.821480,67.227158,-0.367696,-0.057521,-0.156455,19.303436,3.461366,-18.155632
247,2141264058,-1.593461,-1.770789,66.933098,-0.333479,-0.115265,-0.052526,17.759533,3.609382,-18.107872
248,2141280725,-1.292051,-1.714869,66.641388,-0.272266,-0.163414,-0.023946,16.083317,3.822748,-17.978857
249,2141297392,-1.015613,-1.654782,66.351768,-0.266622,-0.206555,-0.017757,14.606083,3.982097,-17.872047
250,2141314059,-0.764862,-1.591690,66.069489,-0.239079,-0.262717,0.024599,13.095610,4.075634,-17.445684
251,2141330726,-0.541444,-1.525092,65.796021,-0.400452,-0.246999,0.049540,11.488907,4.209793,-16.930367
252,2141347393,-0.351409,-1.456294,65.533821,-0.486410,-0.191887,0.091258,9.522129,4.277089,-16.272614
253,2141364060,-0.196028,-1.388113,65.282417,-0.533628,-0.156201,0.170042,7.477015,4.189455,-15.639092
254,2141380727,-0.076645,-1.320796,65.038673,-0.544218,-0.111868,0.249212,5.345292,4.100232,-15.183977
255,2141397394,0.009939,-1.253675,64.803963,-0.555046,-0.104656,0.280014,3.405947,4.061428,-14.654216
256,2141414061,0.066608,-1.189683,64.575348,-0.482093,-0.069018,0.357189,1.634072,3.856296,-14.291116
257,2141430728,0.099708,-1.127640,64.355461,-0.394222,-0.044365,0.376877,0.245184,3.729179,-13.773699
258,2141447395,0.117060,-1.069991,64.143471,-0.266747,-0.047892,0.416193,-0.677559,3.460553,-13.300285
259,2141464062,0.123222,-1.017000,63.938660,-0.167569,-0.064379,0.439786,-1.329197,3.179184,-12.865228
260,2141480729,0.123059,-0.969660,63.739601,-0.061780,0.015320,0.493656,-1.692117,2.840226,-12.522338
261,2141497396,0.116533,-0.930096,63.542454,0.032137,0.109582,0.539707,-2.063053,2.374574,-12.409219
262,2141514063,0.103593,-0.899523,63.341003,0.104871,0.087018,0.560708,-2.444785,1.836771,-12.662605
263,2141530730,0.076890,-0.877460,63.132961,0.158117,0.039829,0.624091,-3.270949,1.329742,-13.061179
264,2141547397,0.032147,-0.864794,62.910419,0.235414,0.088744,0.618154,-4.362691,0.773165,-13.927134
265,2141564064,-0.035830,-0.862319,62.664909,0.297603,0.131406,0.649924,-5.775323,0.174788,-15.305125
266,2141580731,-0.130282,-0.871002,62.396168,0.435903,0.252954,0.675817,-7.385276,-0.471505,-16.695938
267,2141597398,-0.250415,-0.892837,62.096775,0.643661,0.403286,0.657613,-8.958209,-1.224071,-18.541521
268,2141614065,-0.388776,-0.925881,61.762432,0.860355,0.674085,0.682425,-10.093036,-1.843682,-20.643106
269,2141630732,-0.536392,-0.970288,61.388866,1.150959,1.010666,0.711179,-10.699654,-2.455367,-23.011383
270,2141647399,-0.683554,-1.024469,60.972633,1.463690,1.088339,0.686274,-10.734888,-2.955483,-25.574774
271,2141664066,-0.813713,-1.091157,60.509392,1.725281,1.010424,0.685332,-9.791226,-3.606728,-28.418552
272,2141680733,-0.913733,-1.169951,59.997818,1.867491,0.965444,0.635932,-8.073410,-4.231874,-31.333199
273,2141697400,-0.969509,-1.257590,59.433151,1.976097,0.927654,0.545292,-5.528603,-4.666629,-34.532372
274,2141714067,-0.971827,-1.355661,58.810081,2.033706,0.876128,0.443058,-2.453722,-5.214388,-38.043751
275,2141730734,-0.912026,-1.463492,58.126747,2.048986,0.891480,0.362832,1.120031,-5.757694,-41.666279
276,2141747401,-0.781558,-1.576197,57.384415,2.132353,0.924811,0.235271,5.189497,-6.064402,-45.195751
277,2141764068,-0.574074,-1.696158,56.582069,2.135544,0.946237,0.179427,9.619516,-6.586901,-48.776600
278,2141780735,-0.289546,-1.822141,55.725082,2.061076,0.897411,0.093413,14.040611,-7.128446,-52.019279
279,2141797402,0.064317,-1.953181,54.816853,1.865253,0.734710,0.026293,17.986025,-7.710450,-55.055176
280,2141814069,0.473544,-2.084703,53.861416,1.640264,0.409940,-0.019011,21.084757,-8.113561,-57.831287
281,2141830736,0.920603,-2.216360,52.865498,1.369808,0.075991,-0.098889,23.133574,-8.577411,-60.190414
282,2141847403,1.392969,-2.344253,51.837940,1.142949,-0.006219,-0.151306,24.442514,-8.866924,-62.011589
283,2141864070,1.880885,-2.467004,50.783222,0.932432,0.078634,-0.160445,25.173309,-9.118569,-63.564465
284,2141880737,2.379264,-2.583390,49.707630,0.674088,0.133606,-0.202140,25.614393,-9.324402,-64.743607
285,2141897404,2.873757,-2.696280,48.620579,0.371145,0.061283,-0.229016,25.221199,-9.700636,-65.346199
286,2141914071,3.349879,-2.801721,47.532619,0.064351,-0.132054,-0.380737,23.991682,-9.804812,-65.336586
287,2141930738,3.792375,-2.901078,46.450420,-0.161694,-0.262856,-0.331078,21.874502,-9.937216,-64.929703
288,2141947405,4.193716,-2.990560,45.386482,-0.398044,-0.173932,-0.273560,19.353514,-9.743712,-63.801727
289,2141964072,4.550331,-3.073364,44.348595,-0.616478,-0.192398,-0.258965,16.656195,-9.642634,-62.202808
290,2141980739,4.870199,-3.149468,43.338566,-0.807474,-0.378960,-0.174300,14.454914,-9.468109,-60.505196
291,2141997406,5.169180,-3.217562,42.358273,-0.793072,-0.669994,-0.178915,13.222646,-9.157928,-58.724293
292,2142014073,5.457233,-3.279464,41.409424,-0.746942,-0.949937,-0.149384,12.606526,-8.911599,-56.829933
293,2142030740,5.743726,-3.334582,40.497467,-0.754999,-1.157985,-0.034244,12.581593,-8.573935,-54.620846
294,2142047407,6.044401,-3.382086,39.627888,-0.633119,-1.382399,-0.023945,13.531950,-8.136919,-52.091000
295,2142064074,6.381936,-3.420141,38.804955,-0.568570,-1.381034,0.048878,15.870186,-7.559905,-49.331123
296,2142080741,6.782521,-3.448759,38.026848,-0.590781,-1.191914,0.027571,19.785244,-7.005522,-46.680347
297,2142097408,7.262004,-3.470953,37.296707,-0.654787,-0.987719,0.080284,24.672304,-6.626348,-43.814480
298,2142114075,7.817611,-3.482166,36.615948,-0.792843,-0.840034,0.109802,29.405767,-5.976752,-40.903744
299,2142130742,8.435286,-3.481459,35.982456,-1.020926,-0.785290,0.251275,33.297638,-5.283180,-38.143150
300,2142147409,9.093870,-3.470974,35.392334,-1.243515,-0.643315,0.320667,35.912769,-4.726892,-35.604317
301,2142164076,9.770205,-3.449797,34.837212,-1.227629,-0.488781,0.424227,37.113365,-4.159936,-33.582222
302,2142180743,10.442825,-3.417946,34.305252,-1.166337,-0.381103,0.540580,36.987526,-3.675850,-32.277843
303,2142197410,11.095988,-3.375056,33.785397,-1.169313,-0.249262,0.559446,35.882729,-3.258000,-31.648241
304,2142214077,11.716677,-3.324193,33.271374,-1.144557,-0.144619,0.720327,33.979340,-3.065736,-31.359018
305,2142230744,12.291521,-3.263242,32.758995,-1.090288,0.002730,0.807739,31.262848,-2.776461,-31.360649
306,2142247411,12.811398,-3.189210,32.244759,-0.938108,0.048901,0.818349,27.993198,-2.329438,-31.612213
307,2142264078,13.276118,-3.110649,31.725645,-0.740463,0.029761,0.844524,24.707542,-2.397926,-31.938768
308,2142280745,13.684450,-3.023350,31.201336,-0.570270,0.083841,0.746899,21.351851,-2.200629,-32.344501
309,2142297412,14.040511,-2.935626,30.672327,-0.315145,0.145357,0.755882,18.247637,-2.456834,-32.614658
310,2142314079,14.346068,-2.848385,30.138428,-0.128024,0.387640,0.623364,15.250916,-2.742748,-32.878891
311,2142330746,14.601864,-2.760378,29.603905,0.079337,0.635498,0.594687,12.311932,-2.864870,-32.914246
312,2142347413,14.807961,-2.672205,29.072065,0.271840,0.807691,0.552228,9.385883,-2.944691,-32.748020
313,2142364080,14.964991,-2.587191,28.544302,0.400020,0.971539,0.484939,6.501802,-3.166344,-32.457355
314,2142380747,15.075365,-2.505495,28.023962,0.455062,0.967948,0.423570,3.767635,-3.316780,-31.969053
315,2142397414,15.137669,-2.428020,27.509972,0.482403,0.994412,0.412763,0.941827,-3.509721,-31.539434
316,2142414081,15.150051,-2.355139,27.005314,0.524849,1.082999,0.310474,-1.989140,-3.647273,-30.920906
317,2142430748,15.114446,-2.289958,26.509777,0.618251,1.088655,0.322937,-4.810171,-3.943216,-30.275063
318,2142447415,15.033619,-2.227535,26.030787,0.526218,1.292634,0.220270,-7.452025,-3.813333,-29.279198
319,2142464082,14.895845,-2.169876,25.568504,0.370318,1.417665,0.240641,-10.800680,-3.775145,-28.250324
320,2142480749,14.696368,-2.121308,25.128576,0.404143,1.483380,0.292873,-14.428541,-3.877354,-26.826384
321,2142497416,14.430482,-2.080166,24.711773,0.236058,1.489523,0.163261,-18.342588,-3.852292,-25.392944
322,2142514083,14.098594,-2.046427,24.318764,0.107476,1.384181,0.221540,-22.235878,-3.800503,-23.920341
323,2142530750,13.704240,-2.021726,23.951614,0.089291,1.386845,0.148106,-25.918854,-3.804501,-22.311226
324,2142547417,13.256603,-2.004853,23.614719,0.167685,1.312766,0.106494,-29.044331,-3.677360,-20.463194
325,2142564084,12.765079,-1.997433,23.312572,0.129297,1.380474,0.116430,-31.601656,-3.595233,-18.331978
326,2142580751,12.234738,-1.996250,23.049677,0.064263,1.415404,0.031146,-33.849186,-3.292362,-15.989254
327,2142597418,11.676079,-2.000635,22.825546,-0.036945,1.341705,-0.055927,-35.468929,-2.989363,-13.675779
328,2142614085,11.100237,-2.008054,22.638826,0.057803,1.299032,-0.052141,-36.423531,-2.592812,-11.462714
329,2142630752,10.511112,-2.014971,22.489952,0.160066,1.471440,-0.081858,-37.143906,-2.026321,-9.270117
330,2142647419,9.911670,-2.022477,22.377722,0.186604,1.548671,-0.058441,-37.687729,-1.579863,-7.125605
331,2142664086,9.298543,-2.030136,22.306822,0.181657,1.617828,0.041243,-38.423321,-1.103849,-4.694385
332,2142680753,8.672699,-2.037367,22.280008,0.142441,1.735110,-0.030345,-39.094475,-0.619677,-2.099010
333,2142697420,8.037481,-2.044852,22.298023,0.094372,1.846430,0.057208,-39.562782,-0.225111,0.555101
334,2142714087,7.393203,-2.052604,22.361149,0.103332,1.919644,0.087792,-40.011330,0.110718,3.232898
335,2142730754,6.746473,-2.063101,22.470739,0.098141,1.798584,0.100020,-40.059090,0.249796,6.022098
336,2142747421,6.106711,-2.075273,22.624132,0.165910,1.597701,0.116057,-39.546276,0.371444,8.643843
337,2142764088,5.483993,-2.090354,22.821075,0.313972,1.651940,0.145869,-38.427750,0.361826,11.260336
338,2142780755,4.883003,-2.107052,23.062086,0.597741,1.628008,0.207801,-37.025021,0.379717,13.907586
339,2142797422,4.303907,-2.126798,23.345142,0.682048,1.539172,0.272654,-35.613998,0.252690,16.441641
340,2142814089,3.747843,-2.148746,23.668364,0.680257,1.442794,0.317649,-34.136654,0.123563,18.850233
341,2142830756,3.217563,-2.172129,24.030344,0.555595,1.328958,0.313433,-32.494404,-0.003445,21.174253
342,2142847423,2.715926,-2.198898,24.425318,0.516257,1.168591,0.372673,-30.690905,-0.297736,23.161049
343,2142864090,2.236376,-2.227631,24.848461,0.564449,1.251442,0.322118,-29.289040,-0.543760,24.845900
344,2142880757,1.775587,-2.257613,25.298510,0.569880,1.245450,0.360881,-28.087135,-0.768667,26.460690
345,2142897424,1.329433,-2.290161,25.771421,0.587424,1.105983,0.392049,-27.139784,-1.097510,27.829430
346,2142914091,0.902269,-2.324038,26.268314,0.702353,1.023319,0.331440,-25.925825,-1.363755,29.249752
347,2142930758,0.503109,-2.358125,26.785992,0.629669,0.835967,0.284191,-24.176611,-1.574421,30.487209
348,2142947425,0.132910,-2.392674,27.325670,0.424747,0.738947,0.321044,-22.364847,-1.801696,31.795088
349,2142964092,-0.203677,-2.426719,27.879877,0.206625,0.580739,0.224511,-20.291368,-1.970267,32.657448
350,2142980759,-0.502224,-2.458599,28.442093,0.064845,0.211784,0.124838,-17.969242,-2.026436,33.117779
351,2142997426,-0.769458,-2.493449,29.009405,0.112614,0.112999,0.172988,-16.056652,-2.373937,33.417656
352,2143014093,-1.003962,-2.526643,29.577578,0.185963,-0.026230,0.124441,-14.069684,-2.423997,33.455498
353,2143030760,-1.206778,-2.555674,30.143192,0.007145,-0.071207,0.145782,-12.155868,-2.300966,33.296764
354,2143047427,-1.374182,-2.583100,30.704258,-0.210162,-0.281351,0.062240,-10.025749,-2.308022,33.020088
355,2143064094,-1.507581,-2.609874,31.256107,-0.348041,-0.314670,0.006436,-7.993768,-2.343520,32.461018
356,2143080761,-1.616138,-2.632644,31.795227,-0.351236,-0.351804,-0.000091,-6.523617,-2.152871,31.697145
357,2143097428,-1.708252,-2.651658,32.325294,-0.434384,-0.437678,0.019565,-5.549447,-1.969188,31.158066
358,2143114095,-1.797389,-2.667480,32.844353,-0.565373,-0.522454,-0.031536,-5.391428,-1.808378,30.500534
359,2143130762,-1.888965,-2.675792,33.351662,-0.722702,-0.537303,-0.144480,-5.563750,-1.385383,29.803886
360,2143147429,-1.994998,-2.676481,33.842392,-0.809902,-0.467297,-0.035196,-6.474898,-0.948262,28.827808
361,2143164096,-2.121160,-2.673279,34.316082,-0.995478,-0.586303,-0.111931,-7.731087,-0.739057,27.812637
362,2143180763,-2.269570,-2.664818,34.767513,-0.962049,-0.694456,-0.063120,-9.131464,-0.441897,26.488504
363,2143197430,-2.439070,-2.647792,35.197182,-0.729290,-0.665844,-0.010141,-10.463455,0.048286,25.200790
364,2143214097,-2.622339,-2.621555,35.604431,-0.481654,-0.655982,0.036995,-11.360771,0.578957,23.890978
365,2143230764,-2.815952,-2.586274,35.991318,-0.246169,-0.592093,0.052921,-12.049753,1.097052,22.700954
366,2143247431,-3.011807,-2.541411,36.362244,-0.035881,-0.372707,0.051764,-12.243102,1.639940,21.774588
367,2143264098,-3.203598,-2.491836,36.722107,0.058886,-0.484059,0.125285,-12.045561,1.881724,21.139029
368,2143280765,-3.374541,-2.436101,37.071430,0.076585,-0.644088,0.079844,-10.841376,2.217686,20.533619
369,2143297432,-3.510131,-2.374802,37.409809,0.058689,-0.769949,0.200307,-8.768266,2.533119,19.900440
370,2143314099,-3.602226,-2.313385,37.739037,0.155124,-0.803537,0.300512,-6.201497,2.532210,19.363441
371,2143330766,-3.650627,-2.249665,38.061440,0.225088,-0.852616,0.349008,-3.616671,2.670723,18.966438
372,2143347433,-3.653960,-2.184596,38.380249,0.127438,-0.851645,0.433557,-0.941524,2.755322,18.757479
373,2143364100,-3.615128,-2.123510,38.692291,0.046811,-0.770687,0.428407,1.553111,2.547205,18.338505
374,2143380767,-3.543492,-2.063080,39.001030,-0.024629,-0.639147,0.421039,3.495184,2.537946,18.133642
375,2143397434,-3.445184,-2.005651,39.304150,-0.041471,-0.626841,0.450912,5.065257,2.405080,17.787140
376,2143414101,-3.327396,-1.954300,39.602020,-0.011025,-0.564629,0.507301,6.206381,2.094001,17.441853
377,2143430768,-3.196062,-1.900402,39.889164,-0.272753,-0.416624,0.210522,6.981831,2.321236,16.806501
378,2143447435,-3.057107,-1.865632,40.172470,0.624833,-0.373602,0.969914,7.418310,1.228098,16.506243
379,2143464102,-2.909134,-1.828111,40.448235,-0.073524,-0.138956,0.605683,7.935368,1.458702,16.066359
380,2143480769,-2.759248,-1.794902,40.720013,0.307658,-0.214816,0.725513,8.032669,1.255120,15.804670
381,2143497436,-2.616321,-1.767679,40.987183,0.058558,0.069922,0.641408,7.598673,0.951327,15.511238
382,2143514103,-2.485411,-1.750152,41.246483,0.113032,0.050324,0.864017,6.857288,0.429327,15.017183
383,2143530770,-2.372106,-1.738799,41.496311,0.180353,0.124850,0.606639,5.780234,0.116621,14.431123
384,2143547437,-2.281724,-1.732788,41.733414,0.216058,0.380989,0.609058,4.379601,-0.145711,13.653504
385,2143564104,-2.208831,-1.736147,41.949245,0.579184,0.485453,0.555461,3.291842,-0.636566,12.356681
386,2143580771,-2.141980,-1.744263,42.142639,1.013004,0.647486,0.558458,2.890285,-0.854184,11.004199
387,2143597438,-2.065941,-1.756416,42.306915,1.111471,0.746808,0.487740,3.391321,-1.016171,9.248715
388,2143614105,-1.961895,-1.773468,42.437069,1.345489,0.649137,0.461650,5.012592,-1.221098,7.197855
389,2143630772,-1.814403,-1.794882,42.534706,1.472519,0.664475,0.390656,7.562709,-1.399542,5.236179
390,2143647439,-1.610477,-1.820867,42.596916,1.631717,0.668173,0.333768,10.885895,-1.590818,3.112642
391,2143664106,-1.337339,-1.849975,42.624077,1.837623,0.702661,0.294269,14.974916,-1.707075,1.013579
392,2143680773,-0.990734,-1.881847,42.615715,1.874863,0.746327,0.179585,19.316643,-1.818799,-1.111631
393,2143697440,-0.570011,-1.915982,42.570530,1.924848,0.844203,0.144307,23.691978,-1.926066,-3.307413
394,2143714107,-0.083217,-1.950440,42.486755,1.950506,0.935368,0.075587,27.578680,-1.951757,-5.605636
395,2143730774,0.461914,-1.986621,42.363434,1.823295,0.886294,0.051807,30.996492,-2.105922,-7.959367
396,2143747441,1.053954,-2.023517,42.199646,1.729491,0.864989,-0.026919,33.723347,-2.251725,-10.363290
397,2143764108,1.678188,-2.058669,41.995819,1.563618,0.941575,-0.042201,35.564697,-2.306013,-12.739859
398,2143780775,2.325186,-2.092673,41.752960,1.360292,1.012671,-0.106114,36.839600,-2.451597,-15.057856
399,2143797442,2.983994,-2.122492,41.473621,1.290557,1.101878,-0.054339,37.460560,-2.464776,-17.225157
400,2143814109,3.643957,-2.149909,41.156395,1.138363,1.120438,-0.132895,37.437519,-2.641019,-19.466272
401,2143830776,4.297651,-2.172892,40.803181,1.047160,1.000353,-0.163552,36.971638,-2.739526,-21.606102
402,2143847443,4.939977,-2.193645,40.413605,1.037464,0.931107,-0.064598,36.198940,-3.017503,-23.758701
403,2143864110,5.562643,-2.209110,39.988956,0.997552,0.842336,-0.169255,34.930954,-3.147437,-25.844820
404,2143880777,6.164569,-2.224032,39.531761,0.976579,0.921592,-0.010118,33.604759,-3.582229,-27.748714
405,2143897444,6.742098,-2.235739,39.045849,0.983324,0.955876,-0.117185,32.067421,-3.861908,-29.448948
406,2143914111,7.299600,-2.243197,38.536800,1.012306,0.936872,-0.054476,30.806595,-4.062279,-30.815884
407,2143930778,7.838194,-2.249691,38.004749,0.887047,0.697704,-0.048281,29.614294,-4.473340,-32.145912
408,2143947445,8.360240,-2.256112,37.455585,0.680242,0.363598,-0.113469,28.576965,-4.904301,-33.122307
409,2143964112,8.861640,-2.260220,36.891994,0.410426,0.109464,-0.233613,27.300737,-5.186375,-33.954353
410,2143980779,9.337710,-2.267717,36.323349,0.227105,0.024930,-0.121514,25.765549,-5.719007,-34.175774
411,2143997446,9.779944,-2.274806,35.759567,-0.033487,-0.032858,-0.170081,23.741192,-5.915123,-33.844944
412,2144014113,10.177564,-2.279500,35.209690,-0.185538,-0.208499,-0.059096,21.093822,-5.873434,-33.003094
413,2144030780,10.528428,-2.280795,34.684246,-0.401210,-0.297520,-0.033003,18.343765,-5.621002,-31.557800
414,2144047447,10.836179,-2.282100,34.186977,-0.614727,-0.433678,0.050337,15.822564,-5.487480,-29.864866
415,2144064114,11.106529,-2.281447,33.719479,-0.782406,-0.598772,0.029745,13.647897,-5.181673,-28.110294
416,2144080781,11.341911,-2.280390,33.282639,-0.692752,-0.734599,0.091043,11.622444,-4.922967,-26.286673
417,2144097448,11.543903,-2.276696,32.874352,-0.595212,-0.544216,0.047787,9.687344,-4.527581,-24.620913
418,2144114115,11.713512,-2.269790,32.494663,-0.493470,-0.405848,0.109452,7.813817,-4.072568,-22.962652
419,2144130782,11.848488,-2.264215,32.139572,-0.575762,-0.425606,0.184279,5.795633,-3.910810,-21.495472
420,2144147449,11.943955,-2.255464,31.807741,-0.738363,-0.443180,0.293702,3.481341,-3.480784,-20.166586
421,2144164116,11.991980,-2.245097,31.501780,-0.715414,-0.352927,0.332765,0.698965,-3.088754,-18.658310
422,2144180783,11.986421,-2.234671,31.222618,-0.579901,-0.221901,0.418053,-2.451522,-2.760450,-17.086952
423,2144197450,11.934349,-2.223754,30.967703,-0.529100,-0.146833,0.391575,-5.183119,-2.423182,-15.673951
424,2144214117,11.839540,-2.214338,30.735470,-0.368036,-0.207020,0.442979,-7.692768,-2.211902,-14.327615
425,2144230784,11.710839,-2.204462,30.520760,-0.269006,-0.323953,0.469336,-9.684363,-1.945248,-13.311085
426,2144247451,11.554291,-2.195187,30.320753,-0.168105,-0.408593,0.470256,-11.319274,-1.771453,-12.444736
427,2144264118,11.374764,-2.186623,30.133289,-0.151849,-0.451727,0.510805,-12.668119,-1.629712,-11.702685
428,2144280785,11.177148,-2.178744,29.958010,-0.151199,-0.457464,0.540171,-13.723452,-1.491237,-10.981520
429,2144297452,10.961561,-2.171367,29.794439,-0.157974,-0.437375,0.571557,-14.773551,-1.350047,-10.296535
430,2144314119,10.727668,-2.165300,29.641895,-0.151295,-0.476067,0.593450,-15.846084,-1.264897,-9.631846
431,2144330786,10.477114,-2.160034,29.496166,-0.198404,-0.525110,0.565226,-16.829332,-1.200187,-9.230930
432,2144347453,10.211415,-2.154594,29.355907,-0.182402,-0.539659,0.573204,-17.724861,-1.092255,-8.913617
433,2144364120,9.931205,-2.151316,29.220015,-0.157884,-0.460690,0.609083,-18.584768,-1.134913,-8.633657
434,2144380787,9.634472,-2.148968,29.088928,-0.177332,-0.404719,0.589714,-19.564905,-1.102001,-8.351366
435,2144397454,9.320477,-2.148268,28.961437,-0.193216,-0.434038,0.617654,-20.592365,-1.123887,-8.130075
436,2144414121,8.990772,-2.147809,28.834385,-0.198235,-0.453573,0.578280,-21.533865,-1.091987,-8.104129
437,2144430788,8.651915,-2.147917,28.709034,-0.125404,-0.484885,0.539178,-22.079536,-1.067411,-8.006930
438,2144447455,8.307551,-2.147322,28.585093,-0.091753,-0.479768,0.534858,-22.405853,-0.969046,-7.931346
439,2144464122,7.969244,-2.148564,28.463310,-0.070910,-0.476694,0.462355,-22.038235,-1.017428,-7.797801
440,2144480789,7.643957,-2.150621,28.344185,-0.045308,-0.517721,0.435163,-21.250574,-1.003251,-7.637861
441,2144497456,7.337629,-2.153010,28.224419,0.000589,-0.534873,0.405787,-20.114506,-0.989382,-7.677406
442,2144514123,7.060685,-2.157644,28.104746,0.080206,-0.546344,0.379083,-18.351461,-1.087466,-7.662665
443,2144530790,6.816417,-2.161563,27.984713,0.107531,-0.574990,0.315940,-16.391811,-1.016492,-7.697546
444,2144547457,6.605947,-2.165810,27.863977,0.095551,-0.618587,0.304540,-14.365499,-1.013406,-7.738999
445,2144564124,6.428340,-2.170033,27.742168,-0.015718,-0.610845,0.265084,-12.396082,-0.995246,-7.802697
446,2144580791,6.280029,-2.171279,27.618904,-0.046121,-0.592532,0.218267,-10.641481,-0.807966,-7.912268
447,2144597458,6.155199,-2.171584,27.491552,-0.036367,-0.560844,0.181043,-9.241886,-0.761607,-8.164436
448,2144614125,6.050147,-2.169888,27.360008,-0.096751,-0.521208,0.170314,-8.064507,-0.655263,-8.435123
449,2144630792,5.959797,-2.166579,27.226009,-0.087919,-0.489703,0.128996,-7.186875,-0.561802,-8.590079
450,2144647459,5.880000,-2.159069,27.087997,-0.073262,-0.332144,0.036549,-6.562040,-0.324385,-8.854071
451,2144664126,5.804947,-2.147021,26.947104,-0.043816,-0.163426,0.046235,-6.282695,-0.060805,-9.056040
452,2144680793,5.727832,-2.131778,26.804939,-0.056585,-0.074727,0.023985,-6.406993,0.132898,-9.152893
453,2144697460,5.644631,-2.111763,26.662931,-0.047771,0.005522,0.021573,-6.769452,0.430402,-9.171322
454,2144714127,5.554792,-2.087484,26.521732,0.027067,0.078899,0.017507,-7.162927,0.702627,-9.149091
455,2144730794,5.462101,-2.058478,26.384287,0.113879,0.245821,-0.033648,-7.322149,1.020494,-8.947928
456,2144747461,5.370162,-2.025067,26.252960,0.201625,0.417034,-0.026692,-7.259539,1.331970,-8.605640
457,2144764128,5.281132,-1.989689,26.130642,0.260399,0.411813,-0.027499,-7.061590,1.512757,-8.079412
458,2144780795,5.193729,-1.951633,26.022083,0.255196,0.373233,-0.006659,-6.931144,1.760636,-7.262892
459,2144797462,5.110289,-1.909383,25.930315,0.198221,0.456152,-0.035430,-6.655180,2.112196,-6.286588
460,2144814129,5.032004,-1.868606,25.859406,0.043154,0.718595,0.043144,-6.300751,2.143137,-5.029029
461,2144830796,4.956080,-1.831599,25.812479,0.073263,1.026248,0.113925,-6.110550,2.049330,-3.578440
462,2144847463,4.871475,-1.794633,25.787354,0.143413,1.016375,0.178483,-6.589290,2.164997,-2.265379
463,2144864130,4.771235,-1.753703,25.780609,0.100651,0.845621,0.122612,-7.493035,2.498346,-1.187763
464,2144880797,4.648993,-1.713009,25.789082,0.084390,0.923401,0.099623,-8.786181,2.561123,-0.268985
465,2144897464,4.504902,-1.673747,25.813301,0.142358,1.011883,0.109160,-10.070085,2.551608,0.683648
466,2144914131,4.339982,-1.641222,25.852724,0.182954,1.076545,0.153209,-11.295103,2.216531,1.633623
467,2144930798,4.154157,-1.612113,25.914526,0.211834,1.230269,0.163953,-12.513411,2.106242,2.991943
468,2144947465,3.943949,-1.585211,25.999729,0.221119,1.346760,0.234703,-13.939861,2.062470,4.407097
469,2144964132,3.704486,-1.562046,26.110949,0.189263,1.358743,0.224477,-15.655560,1.925136,5.992885
470,2144980799,3.441575,-1.544132,26.246519,0.183820,1.301998,0.260124,-17.026257,1.674323,7.472867
471,2144997466,3.158909,-1.532753,26.404932,0.300731,1.200822,0.251212,-18.177664,1.324915,8.871553
472,2145014133,2.862842,-1.528397,26.585192,0.474137,1.116889,0.279204,-18.948599,0.927021,10.211037
473,2145030800,2.561609,-1.529847,26.784893,0.606094,1.178349,0.243691,-19.228010,0.579700,11.394411
474,2145047467,2.258823,-1.538873,27.006865,0.664779,1.258339,0.341266,-19.284325,0.120566,12.752258
475,2145064134,1.952049,-1.550545,27.252417,0.482404,1.074272,0.280276,-19.483032,-0.054914,14.174041
476,2145080801,1.638724,-1.566819,27.521746,0.209653,0.924562,0.227001,-19.833866,-0.364482,15.603515
477,2145097468,1.317643,-1.588249,27.812441,0.137701,0.828673,0.205405,-20.258810,-0.728990,16.889343
478,2145114135,0.989942,-1.617758,28.119036,0.227116,0.737290,0.278458,-20.621506,-1.292203,17.850876
479,2145130802,0.654479,-1.653217,28.441973,0.236447,0.589645,0.301234,-21.048935,-1.740862,18.825600
480,2145147469,0.312937,-1.690759,28.776688,0.120061,0.291315,0.325757,-21.380262,-1.973503,19.527967
481,2145164136,-0.027958,-1.731713,29.120590,0.044934,0.189003,0.328935,-21.310968,-2.296262,20.062725
482,2145180803,-0.358363,-1.773827,29.469296,0.131845,0.179851,0.299552,-20.657141,-2.487782,20.342596
483,2145197470,-0.674886,-1.821305,29.819431,0.141957,0.001963,0.331738,-19.804846,-2.928078,20.400965
484,2145214137,-0.971223,-1.871334,30.167770,0.101874,-0.118107,0.246676,-18.578413,-3.191863,20.276520
485,2145230804,-1.247134,-1.924633,30.512686,-0.027549,-0.187895,0.245026,-17.340162,-3.488472,20.055403
486,2145247471,-1.496283,-1.982547,30.850098,-0.147329,-0.216717,0.247995,-15.729140,-3.849469,19.578053
487,2145264138,-1.718455,-2.040492,31.175087,-0.086048,-0.279782,0.246341,-14.115519,-3.913923,18.817373
488,2145280805,-1.912775,-2.095745,31.486763,0.080617,-0.271542,0.244437,-12.453429,-3.798191,18.003679
489,2145297472,-2.080744,-2.148849,31.786936,0.153672,-0.273360,0.255950,-10.879407,-3.704844,17.314383
490,2145314139,-2.221811,-2.199184,32.076305,0.075601,-0.312879,0.170974,-9.272820,-3.563205,16.663368
491,2145330806,-2.341291,-2.248704,32.356770,-0.127584,-0.292021,0.156830,-7.982732,-3.532456,16.115870
492,2145347473,-2.439115,-2.292777,32.623116,-0.342243,-0.297617,0.135111,-6.702466,-3.203230,15.282467
493,2145364140,-2.517075,-2.332078,32.872375,-0.317174,-0.389064,0.139523,-5.540288,-2.897772,14.256880
494,2145380807,-2.579545,-2.363850,33.104946,-0.214053,-0.422360,0.104683,-4.642190,-2.421362,13.278675
495,2145397474,-2.626813,-2.389902,33.320297,-0.098026,-0.422102,0.077171,-3.765825,-2.045944,12.256870
496,2145414141,-2.661437,-2.408530,33.518482,-0.079079,-0.326413,0.108586,-3.044352,-1.563707,11.255486
497,2145430808,-2.685339,-2.419555,33.703972,-0.154855,-0.311861,0.047448,-2.430006,-1.079217,10.506340
498,2145447475,-2.698936,-2.421897,33.877422,-0.252379,-0.425300,0.073027,-1.840504,-0.529479,9.812518
499,2145464142,-2.698799,-2.416023,34.038551,-0.294478,-0.470570,0.092491,-1.048097,-0.004175,9.092106
500,2145480809,-2.684993,-2.404027,34.185577,-0.203861,-0.523973,0.067420,-0.264400,0.402203,8.272296
501,2145497476,-2.655657,-2.385868,34.324734,-0.121329,-0.442251,0.102152,0.645511,0.795896,7.816517
502,2145514143,-2.609319,-2.362945,34.455978,-0.064789,-0.411152,0.140388,1.643151,1.107743,7.356000
503,2145530810,-2.544200,-2.334699,34.584221,-0.146557,-0.394007,0.123170,2.759711,1.441541,7.192271
504,2145547477,-2.458951,-2.301427,34.706997,-0.243588,-0.401092,0.160120,3.950138,1.766553,6.870461
505,2145564144,-2.357339,-2.263338,34.826225,-0.120590,-0.409172,0.149158,4.919144,2.075442,6.667454
506,2145580811,-2.239921,-2.223361,34.940662,-0.132466,-0.407814,0.166757,5.851639,2.213059,6.382769
507,2145597478,-2.106538,-2.182114,35.054138,-0.208103,-0.446513,0.183614,6.802933,2.305534,6.325204
508,2145614145,-1.958517,-2.138949,35.163467,-0.169512,-0.363888,0.174473,7.666800,2.445444,6.074675
509,2145630812,-1.793539,-2.095876,35.272602,-0.173503,-0.324572,0.214771,8.679025,2.457610,6.057552
510,2145647479,-1.611740,-2.052605,35.379696,-0.144027,-0.308526,0.225920,9.678884,2.492405,5.924789
511,2145664146,-1.416870,-2.011238,35.488235,-0.197997,-0.289122,0.230599,10.461877,2.396357,6.007123
512,2145680813,-1.212297,-1.972226,35.597794,-0.271832,-0.293660,0.276142,11.041327,2.276016,6.051112
513,2145697480,-0.999050,-1.935572,35.706127,-0.361149,-0.311859,0.257431,11.555028,2.159350,5.964465
514,2145714147,-0.782162,-1.902422,35.816864,-0.386439,-0.284829,0.377461,11.774184,1.970456,6.099585
515,2145730814,-0.560893,-1.874545,35.927250,-0.390250,-0.266526,0.342962,12.032515,1.678958,6.064880
516,2145747481,-0.336847,-1.850971,36.037529,-0.361972,-0.286941,0.347334,12.195769,1.445729,6.053956
517,2145764148,-0.114336,-1.834812,36.149334,-0.348827,-0.324610,0.432075,12.104167,1.025527,6.135571
518,2145780815,0.107211,-1.822565,36.262283,-0.364572,-0.343704,0.428347,12.046615,0.815899,6.204264
519,2145797482,0.326388,-1.817034,36.377144,-0.379385,-0.348367,0.450965,11.906899,0.438394,6.313363
520,2145814149,0.541049,-1.816447,36.493172,-0.385251,-0.354852,0.460678,11.637592,0.167488,6.383541
521,2145830816,0.752753,-1.821741,36.606678,-0.325550,-0.338469,0.450131,11.455560,-0.162141,6.237931
522,2145847483,0.967957,-1.829116,36.720455,-0.227336,-0.341373,0.454484,11.666586,-0.262389,6.254196
523,2145864150,1.183439,-1.839888,36.833012,-0.139249,-0.391601,0.497849,11.682171,-0.442601,6.188039
524,2145880817,1.401585,-1.855112,36.944439,-0.120584,-0.418833,0.430537,11.841493,-0.686421,6.121509
525,2145897484,1.621351,-1.872481,37.057056,-0.138681,-0.455958,0.431383,11.943012,-0.788641,6.200064
526,2145914151,1.839198,-1.892754,37.167133,-0.162129,-0.472806,0.450701,11.825639,-0.942023,6.062395
527,2145930818,2.051187,-1.915181,37.275261,-0.265197,-0.462528,0.406137,11.472800,-1.051530,5.947035
528,2145947485,2.249747,-1.939183,37.380821,-0.358951,-0.486565,0.420535,10.664283,-1.129469,5.800415
529,2145964152,2.428269,-1.961689,37.479359,-0.367390,-0.496783,0.419786,9.450457,-1.036790,5.385169
530,2145980819,2.578482,-1.985557,37.571934,-0.238184,-0.468927,0.425375,7.741857,-1.118161,5.035477
531,2145997486,2.692582,-2.008436,37.662323,-0.261851,-0.421411,0.390312,5.572857,-1.052977,4.904391
532,2146014153,2.769818,-2.030784,37.751823,-0.255188,-0.279463,0.378375,3.361046,-1.015749,4.843727
533,2146030820,2.809171,-2.050157,37.839863,-0.171213,-0.132190,0.345114,1.087086,-0.836652,4.757220
534,2146047487,2.814564,-2.066255,37.925049,-0.042952,-0.027215,0.359843,-0.955213,-0.647387,4.570888
535,2146064154,2.792054,-2.079561,38.007744,0.160292,-0.040951,0.337526,-2.633588,-0.488345,4.413856
536,2146080821,2.749245,-2.090508,38.086479,0.282048,-0.020246,0.300634,-3.858541,-0.361306,4.173917
537,2146097488,2.691535,-2.097753,38.159721,0.368372,0.034010,0.239264,-4.763450,-0.159260,3.831308
538,2146114155,2.618620,-2.100954,38.226818,0.386096,0.116471,0.183277,-5.688607,0.061016,3.452701
539,2146130822,2.535309,-2.099100,38.283710,0.428669,0.125557,0.127016,-6.333907,0.331665,2.831363
540,2146147489,2.442513,-2.094837,38.329231,0.540835,0.128197,0.060679,-6.927787,0.441288,2.139231
541,2146164156,2.354122,-2.085164,38.357719,0.618759,0.181155,-0.031104,-6.700373,0.719186,1.108038
542,2146180823,2.279961,-2.074218,38.368641,0.804394,0.166250,-0.019901,-5.884301,0.751048,0.050707
543,2146197490,2.227161,-2.058825,38.361843,0.956663,0.179638,-0.068135,-4.639971,0.975876,-1.015544
544,2146214157,2.208148,-2.041873,38.336914,1.044681,0.263028,-0.089665,-2.650466,1.028420,-2.107772
545,2146230824,2.232258,-2.021672,38.294670,1.097297,0.333888,-0.089436,-0.098173,1.184017,-3.151911
546,2146247491,2.308930,-1.996977,38.235928,1.025240,0.298554,-0.104362,3.023227,1.412995,-4.151755
547,2146264158,2.447095,-1.970285,38.159325,1.002464,0.212383,-0.179434,6.678417,1.482764,-5.229949
548,2146280825,2.655132,-1.942708,38.063789,1.011875,0.113352,-0.174397,10.835209,1.472110,-6.372610
549,2146297492,2.933908,-1.913500,37.953049,1.077413,0.137465,-0.205111,15.052911,1.501591,-7.293991
550,2146314159,3.278895,-1.884777,37.828163,1.076482,0.343422,-0.229168,19.002134,1.390688,-8.149678
551,2146330826,3.681218,-1.857342,37.691395,0.914704,0.496360,-0.185789,22.423687,1.222337,-8.861268
552,2146347493,4.128541,-1.831982,37.542858,0.722578,0.510046,-0.145684,25.105648,0.989632,-9.565483
553,2146364160,4.609519,-1.808590,37.381153,0.599635,0.448723,-0.137276,27.104250,0.740446,-10.348868
554,2146380827,5.111340,-1.783858,37.204075,0.441219,0.387404,-0.137934,28.329899,0.659331,-11.285262
555,2146397494,5.623712,-1.760294,37.013550,0.350917,0.353769,-0.121675,28.942814,0.420645,-12.081871
556,2146414161,6.133825,-1.738351,36.811523,0.254079,0.446885,-0.084375,28.790443,0.150622,-12.765337
557,2146430828,6.629054,-1.718531,36.596176,0.139103,0.629166,-0.021069,27.877527,-0.170632,-13.543030
558,2146447495,7.097674,-1.699994,36.369396,0.157575,0.693834,0.066064,26.264469,-0.437671,-14.216311
559,2146464162,7.522887,-1.682565,36.130981,0.111403,0.588324,0.129235,23.643099,-0.697397,-14.893912
560,2146480829,7.895835,-1.666610,35.884392,-0.009098,0.325865,0.132187,20.496511,-0.949478,-15.361968
561,2146497496,8.214059,-1.652204,35.627724,-0.037487,0.289449,0.244508,17.198530,-1.215415,-15.945909
562,2146514163,8.490191,-1.642013,35.363277,0.112154,0.449838,0.347011,14.662316,-1.613334,-16.364763
563,2146530830,8.736380,-1.638938,35.091187,0.276971,0.589657,0.431644,12.853952,-2.174650,-16.744099
564,2146547497,8.963090,-1.642850,34.812073,0.271280,0.574422,0.533101,11.672537,-2.719906,-17.088472
565,2146564164,9.173479,-1.654106,34.527512,0.202521,0.535986,0.592212,10.681479,-3.269018,-17.334560
566,2146580831,9.356756,-1.673874,34.238770,0.091333,0.443123,0.598573,9.042082,-3.869328,-17.483969
567,2146597498,9.500007,-1.699841,33.946674,-0.061314,0.284255,0.538758,6.627160,-4.316450,-17.608088
568,2146614165,9.595844,-1.736004,33.650288,-0.143912,0.273802,0.536098,3.764604,-4.997569,-17.751043
569,2146630832,9.633549,-1.777425,33.355782,-0.217191,0.269112,0.562778,0.267006,-5.310338,-17.582115
570,2146647499,9.601603,-1.826200,33.066143,-0.439905,0.202220,0.609780,-3.917339,-5.696309,-17.218399
571,2146664166,9.499560,-1.882227,32.781326,-0.619344,0.106190,0.628201,-8.130916,-6.058577,-16.866842
572,2146680833,9.324804,-1.941828,32.505608,-0.611987,-0.071104,0.519696,-12.494536,-6.142781,-16.313307
573,2146697500,9.084455,-2.003129,32.242180,-0.536300,-0.297676,0.544563,-16.423111,-6.069478,-15.591429
574,2146714167,8.794528,-2.064013,31.996145,-0.441637,-0.566421,0.471076,-19.378033,-5.812404,-14.583364
575,2146730834,8.472171,-2.127662,31.770823,-0.389311,-0.749248,0.389243,-21.295010,-5.717267,-13.365773
576,2146747501,8.132946,-2.190028,31.570278,-0.297827,-0.835257,0.357640,-22.265789,-5.353887,-11.938288
577,2146764168,7.793647,-2.249369,31.395334,-0.294955,-0.823568,0.313043,-22.223768,-4.895686,-10.474401
578,2146780835,7.467055,-2.305520,31.247221,-0.285360,-0.834531,0.281330,-21.407610,-4.436371,-8.933509
579,2146797502,7.163629,-2.357495,31.123140,-0.241836,-0.846391,0.293880,-19.967283,-3.959934,-7.560497
580,2146814169,6.890624,-2.404148,31.020458,0.017898,-0.547505,0.290226,-18.094576,-3.452123,-6.343544
581,2146830836,6.652452,-2.443279,30.933311,0.205771,-0.402033,0.202743,-15.969715,-2.869445,-5.487718
582,2146847503,6.447575,-2.476031,30.854752,0.180189,-0.497272,0.165031,-13.952311,-2.412040,-5.032579
583,2146864170,6.271137,-2.502134,30.778687,0.066068,-0.622343,0.099894,-12.241340,-1.984985,-4.935122
584,2146880837,6.116482,-2.518521,30.706049,-0.103057,-0.667260,0.107416,-10.926869,-1.372009,-4.804432
585,2146897504,5.977335,-2.526471,30.635588,-0.248872,-0.631099,0.136930,-9.990851,-0.844925,-4.728567
586,2146914171,5.851573,-2.525826,30.565374,-0.288266,-0.622488,0.115587,-9.187023,-0.321939,-4.767550
587,2146930838,5.733257,-2.518606,30.495705,-0.265536,-0.551486,0.119894,-8.738940,0.081340,-4.776667
588,2146947505,5.617460,-2.502699,30.424671,-0.151837,-0.438678,0.119562,-8.590233,0.599357,-4.909533
589,2146964172,5.498305,-2.481288,30.352186,-0.066551,-0.417034,0.084011,-8.794187,0.927353,-5.028338
590,2146980839,5.375051,-2.453635,30.272974,-0.183680,-0.457915,0.102539,-9.055245,1.270909,-5.460526
591,2146997506,5.243692,-2.420984,30.189499,-0.218185,-0.470744,0.090216,-9.550056,1.555390,-5.743727
592,2147014173,5.105982,-2.383221,30.098400,-0.252514,-0.419628,0.132326,-9.947197,1.831008,-6.223057
593,2147030840,4.962229,-2.339696,30.004877,-0.203660,-0.396497,0.099689,-10.311780,2.175486,-6.390948
594,2147047507,4.812628,-2.293315,29.906063,-0.157975,-0.436585,0.137028,-10.671012,2.333491,-6.714885
595,2147064174,4.661041,-2.242968,29.804449,-0.096214,-0.408751,0.151135,-10.791853,2.571869,-6.896262
596,2147080841,4.508499,-2.188870,29.698984,0.009970,-0.319717,0.141459,-10.852402,2.793700,-7.139915
597,2147097508,4.356157,-2.132463,29.590374,-0.068712,-0.359653,0.175247,-10.841362,2.934032,-7.331768
598,2147114175,4.205268,-2.072784,29.479391,-0.162014,-0.425206,0.098678,-10.752551,3.136284,-7.482897
599,2147130842,4.055777,-2.011706,29.365572,-0.094613,-0.382081,0.136431,-10.667710,3.225301,-7.646652
600,2147147509,3.908892,-1.949764,29.249565,-0.110036,-0.394397,0.159573,-10.508513,3.284914,-7.777391
601,2147164176,3.767997,-1.887494,29.133598,-0.146781,-0.431877,0.161672,-10.141086,3.322514,-7.762395
602,2147180843,3.637299,-1.825236,29.016781,-0.060463,-0.444034,0.233036,-9.523550,3.334718,-7.804067
603,2147197510,3.517705,-1.761935,28.901226,-0.021735,-0.452657,0.215082,-8.846912,3.416588,-7.732234
604,2147214177,3.413781,-1.701864,28.784149,-0.031557,-0.442027,0.287640,-7.901816,3.231037,-7.801555
605,2147230844,3.325720,-1.644947,28.668209,-0.024644,-0.458574,0.283464,-6.940672,3.057267,-7.722116
606,2147247511,3.255289,-1.589363,28.553986,-0.055171,-0.492601,0.320243,-5.872622,2.992723,-7.606065
607,2147264178,3.203681,-1.539563,28.441692,-0.029516,-0.436161,0.381851,-4.733548,2.659694,-7.466040
608,2147280845,3.172869,-1.492490,28.332840,-0.037466,-0.371798,0.381487,-3.474415,2.511921,-7.254029
609,2147297512,3.160066,-1.450509,28.224649,-0.084719,-0.338293,0.379220,-2.387706,2.210690,-7.194763
610,2147314179,3.158368,-1.413761,28.121420,-0.161956,-0.338925,0.423166,-1.709468,1.913851,-6.883196
611,2147330846,3.163248,-1.381324,28.021839,-0.064061,-0.300098,0.429907,-1.305595,1.667022,-6.646317
612,2147347513,3.168528,-1.351890,27.930222,-0.022203,-0.231858,0.463091,-1.266894,1.512219,-6.164209
613,2147364180,3.175557,-1.327918,27.844595,-0.078818,0.000094,0.448026,-1.150740,1.203983,-5.785590
614,2147380847,3.185827,-1.309552,27.763603,-0.028778,0.111632,0.485983,-0.948362,0.882531,-5.492401
615,2147397514,3.194931,-1.296915,27.687914,0.003628,0.081565,0.472297,-1.009858,0.556289,-5.154313
616,2147414181,3.199514,-1.289119,27.617931,0.030829,0.052022,0.492294,-1.272785,0.285012,-4.793135
617,2147430848,3.205790,-1.287389,27.556684,0.003248,0.288804,0.479758,-1.159231,-0.049689,-4.251529
618,2147447515,3.213705,-1.291925,27.506788,0.136233,0.613673,0.515001,-1.045984,-0.387200,-3.553890
619,2147464182,3.218060,-1.303233,27.470943,0.257552,0.688119,0.520599,-1.241332,-0.744548,-2.681304
620,2147480849,3.208802,-1.314458,27.448763,0.207403,0.492559,0.474752,-2.040372,-0.692695,-1.866141
621,2147497516,3.176644,-1.329709,27.439108,0.110047,0.424189,0.372921,-3.397499,-0.890912,-1.106161
622,2147514183,3.120861,-1.350684,27.440849,0.109794,0.578685,0.281226,-4.799500,-1.195204,-0.404681
623,2147530850,3.034698,-1.379168,27.457756,0.077646,0.710792,0.268113,-6.600995,-1.595761,0.526373
624,2147547517,2.917063,-1.415225,27.489244,0.142069,0.750875,0.244639,-8.468060,-2.004949,1.424969
625,2147564184,2.762444,-1.455900,27.536276,0.212458,0.862057,0.197493,-10.663133,-2.239498,2.361370
626,2147580851,2.569908,-1.497305,27.600750,0.329639,1.130242,0.211906,-12.909654,-2.241996,3.407701
627,2147597518,2.337629,-1.539704,27.680759,0.345304,1.259445,0.231952,-15.267485,-2.275063,4.325060
628,2147614185,2.068657,-1.579549,27.774168,0.290429,1.161325,0.153530,-17.444254,-2.110310,5.117481
629,2147630852,1.768050,-1.617594,27.886839,0.206834,1.068627,0.063231,-19.307278,-1.990635,6.250757
630,2147647519,1.438980,-1.654042,28.013662,0.249768,1.067163,0.006532,-20.987097,-1.906882,7.087885
631,2147664186,1.087859,-1.690819,28.157177,0.453796,1.112291,0.035927,-22.276636,-1.948439,8.078804
632,2147680853,0.723698,-1.727516,28.316294,0.518558,0.985211,0.034034,-23.026094,-1.981185,9.001238
633,2147697520,0.358439,-1.763593,28.488689,0.425262,0.854756,0.058144,-23.061647,-1.995643,9.784129
634,2147714187,0.000794,-1.795433,28.673914,0.437774,0.651036,-0.002756,-22.575016,-1.802997,10.540627
635,2147730854,-0.342477,-1.825889,28.868561,0.457388,0.440369,-0.004749,-21.688391,-1.788615,11.095872
636,2147747521,-0.663400,-1.857337,29.073704,0.512277,0.350404,0.045714,-20.320761,-1.920457,11.711272
637,2147764188,-0.956797,-1.890535,29.288054,0.524327,0.269802,0.039425,-18.643618,-2.098286,12.255396
638,2147780855,-1.217150,-1.921767,29.508886,0.354466,0.020748,0.063032,-16.640314,-2.049083,12.635014
639,2147797522,-1.438421,-1.949957,29.734440,0.031082,-0.127502,0.033270,-14.278267,-1.928549,12.911807
640,2147814189,-1.615003,-1.974623,29.962244,-0.154718,-0.193385,-0.015682,-11.585879,-1.767765,13.041407
641,2147830856,-1.743019,-2.001343,30.188354,-0.100301,-0.216201,-0.005113,-8.669062,-1.924873,12.933062
642,2147847523,-1.821633,-2.032095,30.410988,0.120515,-0.218409,0.085641,-5.705297,-2.184995,12.709561
643,2147864190,-1.852473,-2.066193,30.628326,0.200775,-0.133636,0.149105,-2.842141,-2.388834,12.390145
644,2147880857,-1.840931,-2.100299,30.842487,0.211531,-0.069730,0.142155,-0.297914,-2.385350,12.192746
645,2147897524,-1.797630,-2.133106,31.050074,0.110173,-0.084196,0.109583,1.601326,-2.288995,11.806122
646,2147914191,-1.729234,-2.165915,31.252029,0.024219,-0.170410,0.062832,3.101629,-2.266789,11.468380
647,2147930858,-1.644144,-2.197783,31.443735,0.008987,-0.260887,0.095647,4.087078,-2.176619,10.859258
648,2147947525,-1.552167,-2.225959,31.627110,-0.021163,-0.139874,0.047753,4.487366,-1.924155,10.370541
649,2147964192,-1.457941,-2.252477,31.801413,-0.128848,-0.134532,0.104154,4.606286,-1.793095,9.832059
650,2147980859,-1.363897,-2.276878,31.965351,-0.259804,-0.204019,0.116773,4.575653,-1.634168,9.217059
651,2147997526,-1.268806,-2.296345,32.117943,-0.241318,-0.282665,0.113226,4.614879,-1.307132,8.544252
652,2148014193,-1.169287,-2.314540,32.260216,-0.218040,-0.348422,0.184882,4.858775,-1.202901,7.928124
653,2148030860,-1.059505,-2.332198,32.389896,-0.237908,-0.362787,0.227305,5.446549,-1.141340,7.176047
654,2148047527,-0.936429,-2.347689,32.508682,-0.232144,-0.411819,0.205256,6.219924,-0.985334,6.531131
655,2148064194,-0.801841,-2.358340,32.618252,-0.280137,-0.407862,0.196125,6.889453,-0.671476,5.982084
656,2148080861,-0.660356,-2.366283,32.720356,-0.367738,-0.430834,0.187098,7.285900,-0.488421,5.537166
657,2148097528,-0.519653,-2.368657,32.815891,-0.444317,-0.454708,0.159072,7.223186,-0.136362,5.150556
658,2148114195,-0.386525,-2.366521,32.905296,-0.471884,-0.424475,0.174307,6.753489,0.149661,4.785126
659,2148130862,-0.265697,-2.361612,32.989777,-0.519353,-0.415099,0.200602,6.002536,0.328400,4.493154
660,2148147529,-0.162325,-2.350059,33.068447,-0.534038,-0.348126,0.236423,4.940019,0.736961,4.146076
661,2148164196,-0.073599,-2.335603,33.144176,-0.416980,-0.245150,0.265816,4.052409,0.918478,3.968912
662,2148180863,0.002370,-2.316939,33.219627,-0.403767,-0.258995,0.280954,3.284438,1.176654,3.946219
663,2148197530,0.065703,-2.295645,33.293816,-0.418483,-0.271848,0.328762,2.521308,1.338949,3.873735
664,2148214197,0.115898,-2.271080,33.368385,-0.472129,-0.279850,0.280220,1.731873,1.538664,3.892856
665,2148230864,0.150818,-2.247325,33.442047,-0.488863,-0.287360,0.288501,0.811289,1.492497,3.842052
666,2148247531,0.171935,-2.220870,33.517021,-0.488359,-0.252103,0.357954,-0.016520,1.655791,3.915855
667,2148264198,0.182606,-2.194686,33.592915,-0.287537,-0.283903,0.385104,-0.643852,1.640026,3.968028
668,2148280865,0.188091,-2.170192,33.671135,-0.264052,-0.294000,0.403315,-0.951576,1.539061,4.112599
669,2148297532,0.197702,-2.147679,33.754650,-0.270362,-0.293629,0.439414,-0.694335,1.421025,4.425997
670,2148314199,0.214796,-2.122860,33.842251,-0.254910,-0.340808,0.401786,-0.238326,1.560767,4.671724
671,2148330866,0.243244,-2.102301,33.933830,-0.254726,-0.418874,0.391636,0.449535,1.307330,4.909846
672,2148347533,0.284897,-2.084228,34.031036,-0.249862,-0.386932,0.426952,1.252365,1.162234,5.250610
673,2148364200,0.337713,-2.068207,34.131229,-0.232253,-0.371058,0.353768,1.926965,1.043890,5.427389
674,2148380867,0.397211,-2.054281,34.234997,-0.209606,-0.343308,0.389411,2.333926,0.924740,5.638233
675,2148397534,0.463188,-2.040861,34.343044,-0.232579,-0.393894,0.330848,2.730372,0.902329,5.895436
676,2148414201,0.533707,-2.028610,34.454308,-0.252932,-0.430698,0.313818,3.008141,0.840628,6.089874
677,2148430868,0.606956,-2.017991,34.566032,-0.307029,-0.432612,0.311824,3.171782,0.750536,6.117166
678,2148447535,0.681570,-2.007147,34.678600,-0.355951,-0.421265,0.258440,3.254075,0.772217,6.164716
679,2148464202,0.756934,-1.998242,34.790146,-0.277420,-0.410287,0.293397,3.295632,0.662914,6.105922
680,2148480869,0.828796,-1.991150,34.900749,-0.204244,-0.370759,0.269889,3.082803,0.561155,6.055195
681,2148497536,0.902106,-1.982418,35.011032,-0.155730,-0.354519,0.268048,3.167824,0.666756,6.024525
682,2148514203,0.979546,-1.974719,35.119049,-0.150388,-0.454506,0.279967,3.410120,0.610485,5.891350
683,2148530870,1.065127,-1.969632,35.224480,-0.187478,-0.510181,0.249799,3.892664,0.459332,5.734333
684,2148547537,1.159915,-1.966214,35.327011,-0.142184,-0.479861,0.210909,4.439148,0.365064,5.572780
685,2148564204,1.259906,-1.961131,35.426266,-0.115562,-0.493084,0.262428,4.744145,0.470448,5.377085
686,2148580871,1.364383,-1.956712,35.523399,-0.063672,-0.500960,0.253318,5.008455,0.437126,5.238444
687,2148597538,1.471608,-1.953130,35.617035,-0.039776,-0.446490,0.237798,5.166255,0.391932,5.036462
688,2148614205,1.578980,-1.949899,35.708916,-0.107083,-0.411987,0.235335,5.171351,0.377640,4.926686
689,2148630872,1.683995,-1.946670,35.799141,-0.237054,-0.337507,0.186933,5.026449,0.384171,4.826363
690,2148647539,1.781021,-1.941671,35.886730,-0.372150,-0.278384,0.152827,4.541164,0.494242,4.661493
691,2148664206,1.864814,-1.932777,35.973328,-0.453086,-0.237253,0.151942,3.744392,0.733541,4.599510
692,2148680873,1.924752,-1.924265,36.057568,-0.329695,-0.158682,0.144366,2.306328,0.711246,4.440096
693,2148697540,1.950790,-1.914228,36.139008,-0.214205,-0.057285,0.151627,0.265713,0.800122,4.270540
694,2148714207,1.939575,-1.903598,36.218277,-0.226839,-0.104903,0.144729,-1.974483,0.832150,4.152722
695,2148730874,1.898307,-1.888500,36.297802,-0.172368,-0.114359,0.179247,-3.778359,1.098164,4.169946
696,2148747541,1.831285,-1.870678,36.372696,-0.085321,-0.048334,0.132006,-5.334229,1.247511,3.880279
697,2148764208,1.742960,-1.849890,36.443981,-0.043673,-0.022611,0.169194,-6.620974,1.412637,3.662124
698,2148780875,1.633587,-1.830065,36.511688,0.008028,0.049312,0.201407,-7.892646,1.340845,3.447541
699,2148797542,1.506855,-1.812697,36.572121,0.150129,0.061930,0.238558,-8.949336,1.173350,3.016543
700,2148814209,1.367592,-1.795560,36.623478,0.289362,-0.036504,0.298266,-9.719267,1.137685,2.474053
701,2148830876,1.229451,-1.776958,36.662430,0.431309,-0.146621,0.307689,-9.675942,1.201217,1.731195
702,2148847543,1.103412,-1.760713,36.689903,0.533044,-0.164100,0.263929,-8.970952,1.040740,1.047233
703,2148864210,1.001428,-1.747449,36.703857,0.676057,-0.085665,0.215407,-7.552149,0.843855,0.242136
704,2148880877,0.936415,-1.737002,36.705566,0.866458,0.039237,0.241497,-5.355258,0.661749,-0.486885
705,2148897544,0.918091,-1.728404,36.695999,0.959529,0.075476,0.263969,-2.573423,0.540191,-1.166940
706,2148914211,0.961235,-1.721409,36.671989,1.029941,0.027486,0.206619,1.090211,0.430799,-2.021841
707,2148930878,1.070393,-1.718349,36.635281,1.129365,0.046599,0.158565,5.029547,0.179936,-2.783038
708,2148947545,1.248807,-1.716310,36.583572,1.131221,0.134026,0.142860,9.159801,0.096144,-3.675794
709,2148964212,1.493870,-1.717780,36.515289,1.077231,0.177858,0.147094,13.130378,-0.148797,-4.670427
710,2148980879,1.795729,-1.719678,36.429428,0.988513,0.233987,0.080347,16.507509,-0.223125,-5.720897
711,2148997546,2.149247,-1.721982,36.326843,0.938264,0.314540,0.124203,19.577805,-0.310426,-6.722510
712,2149014213,2.546088,-1.724710,36.205612,0.893009,0.355244,0.066330,22.144289,-0.420536,-7.834300
713,2149030880,2.980560,-1.728786,36.067326,0.818339,0.440512,0.057981,24.371716,-0.602169,-8.847940
714,2149047547,3.441558,-1.732751,35.911644,0.788406,0.549534,0.046412,25.931936,-0.717401,-9.886337
715,2149064214,3.917766,-1.738325,35.741005,0.668823,0.682743,0.104039,26.816936,-0.946110,-10.771900
716,2149080881,4.403355,-1.745950,35.557919,0.565992,0.774994,0.078397,27.356487,-1.206413,-11.491543
717,2149097548,4.887834,-1.754707,35.359936,0.496990,0.748092,0.145120,27.261057,-1.437645,-12.368591
718,2149114215,5.363468,-1.764941,35.147827,0.361930,0.688946,0.171060,26.702082,-1.699100,-13.195959
719,2149130882,5.827870,-1.776130,34.924217,0.266496,0.707446,0.144066,26.004265,-1.925492,-13.860779
720,2149147549,6.281010,-1.788114,34.693523,0.266325,0.685800,0.277214,25.312214,-2.123004,-14.263254
721,2149164216,6.722645,-1.801175,34.454178,0.204439,0.593588,0.195164,24.602072,-2.351662,-14.754763
722,2149180883,7.151049,-1.816795,34.210819,0.231469,0.544837,0.233364,23.796925,-2.639345,-14.954211
723,2149197550,7.554323,-1.834627,33.966537,0.199351,0.545147,0.279007,22.282801,-2.880834,-14.969712
724,2149214217,7.920181,-1.852395,33.717525,0.103173,0.399556,0.307982,20.023428,-3.011484,-15.233608
725,2149230884,8.234334,-1.871101,33.462036,-0.221154,0.208366,0.262981,16.903866,-3.207907,-15.589159
726,2149247551,8.489826,-1.890828,33.198433,-0.242324,0.162602,0.299859,13.362082,-3.414511,-16.052092
727,2149264218,8.682773,-1.910398,32.929031,-0.100388,0.081666,0.342230,9.591886,-3.516590,-16.377769
728,2149280885,8.816943,-1.931587,32.657665,-0.151575,-0.096024,0.346320,6.054906,-3.676348,-16.473351
729,2149297552,8.898878,-1.957651,32.387341,-0.249894,-0.163558,0.345515,2.916143,-3.985391,-16.355379
730,2149314219,8.929395,-1.988470,32.121452,-0.268663,-0.152886,0.461393,-0.168173,-4.242083,-16.045990
731,2149330886,8.907105,-2.020862,31.863144,-0.318040,-0.088342,0.383949,-3.329757,-4.266273,-15.580657
732,2149347553,8.832365,-2.056778,31.610720,-0.394675,-0.085904,0.349957,-6.474422,-4.409615,-15.208849
733,2149364220,8.708324,-2.095190,31.367819,-0.336013,-0.165993,0.409084,-9.422128,-4.444525,-14.623495
734,2149380887,8.538427,-2.133631,31.133936,-0.488656,-0.194034,0.374802,-12.163717,-4.329513,-14.098824
735,2149397554,8.333605,-2.175069,30.907328,-0.579713,-0.344308,0.425212,-14.253103,-4.399794,-13.651524
736,2149414221,8.100828,-2.217755,30.691664,-0.544966,-0.732695,0.447184,-15.915886,-4.331320,-13.010839
737,2149430888,7.842320,-2.256901,30.492748,-0.488475,-1.093376,0.304809,-17.430176,-3.930250,-12.067866
738,2149447555,7.572357,-2.292131,30.318142,-0.270401,-0.939219,0.229403,-18.067059,-3.450663,-10.672648
739,2149464222,7.304731,-2.326005,30.161785,-0.033420,-0.556099,0.172416,-17.888432,-3.182920,-9.612421
740,2149480889,7.047939,-2.357068,30.021223,0.013818,-0.382120,0.166372,-17.204775,-2.855871,-8.704679
741,2149497556,6.805458,-2.380841,29.897173,-0.128671,-0.464032,0.101990,-16.309059,-2.267917,-7.791096
742,2149514223,6.571950,-2.394949,29.787817,-0.184297,-0.576890,0.071218,-15.736406,-1.560302,-6.996026
743,2149530890,6.341404,-2.401936,29.692253,-0.223121,-0.462786,0.031853,-15.524948,-1.017581,-6.227875
744,2149547557,6.109811,-2.401031,29.609612,-0.346738,-0.428555,0.068243,-15.555416,-0.440564,-5.508503
745,2149564224,5.874043,-2.393191,29.538809,-0.287405,-0.283124,0.154313,-15.776183,0.066305,-4.850538
746,2149580891,5.630227,-2.378092,29.477341,-0.024438,-0.066488,0.162383,-16.234917,0.572924,-4.334287
747,2149597558,5.377513,-2.356824,29.422901,-0.077826,-0.187937,0.168803,-16.750248,0.997942,-3.949995
748,2149614225,5.119938,-2.329904,29.370747,-0.149526,-0.323292,0.141735,-17.034693,1.362821,-3.840245
749,2149630892,4.858507,-2.300035,29.320858,-0.210809,-0.420031,0.108496,-17.259279,1.564829,-3.715255
750,2149647559,4.599814,-2.265536,29.272699,-0.281794,-0.542202,0.186741,-17.088993,1.863858,-3.625598
751,2149664226,4.345915,-2.229842,29.227728,-0.258860,-0.522090,0.106408,-16.791973,1.962748,-3.433860
752,2149680893,4.100433,-2.192384,29.182295,-0.092181,-0.477034,0.168390,-16.286558,2.077276,-3.465133
753,2149697560,3.868901,-2.154172,29.134811,0.049849,-0.424896,0.211720,-15.452002,2.125324,-3.579659
754,2149714227,3.656973,-2.113839,29.083305,0.066965,-0.506785,0.265774,-14.282369,2.247842,-3.816948
755,2149730894,3.467384,-2.076721,29.028431,-0.041391,-0.626323,0.229573,-12.946871,2.053506,-3.999349
756,2149747561,3.300476,-2.041409,28.971249,-0.123141,-0.775478,0.195580,-11.588293,1.946957,-4.124083
757,2149764228,3.153909,-2.007182,28.910948,-0.103445,-0.735610,0.252228,-10.372123,1.879723,-4.303639
758,2149780895,3.027531,-1.973909,28.848377,-0.178071,-0.636870,0.232702,-9.162971,1.822991,-4.436338
759,2149797562,2.919935,-1.941844,28.786884,-0.287278,-0.605046,0.225230,-8.031287,1.760906,-4.358130
760,2149814229,2.829687,-1.914199,28.723991,-0.227475,-0.501015,0.320728,-6.991321,1.497146,-4.429231
761,2149830896,2.751956,-1.888975,28.659966,-0.267143,-0.513430,0.292472,-6.240778,1.353408,-4.489446
762,2149847563,2.682736,-1.866538,28.594366,-0.333437,-0.622138,0.283128,-5.731343,1.186233,-4.571382
763,2149864230,2.617184,-1.847180,28.526573,-0.221456,-0.537931,0.301761,-5.513992,0.999555,-4.688610
764,2149880897,2.555652,-1.831341,28.457266,-0.299168,-0.377676,0.363523,-5.274449,0.788058,-4.773221
765,2149897564,2.500560,-1.819051,28.384525,-0.378353,-0.261534,0.346329,-4.893602,0.569723,-4.965433
766,2149914231,2.449750,-1.809283,28.311977,-0.446981,-0.264238,0.370974,-4.635899,0.422219,-4.951653
767,2149930898,2.393982,-1.802946,28.243328,-0.431164,-0.340305,0.401865,-4.925938,0.229778,-4.707666
768,2149947565,2.331926,-1.796330,28.178513,-0.124205,-0.114031,0.389251,-5.295543,0.259694,-4.474847
769,2149964232,2.268708,-1.793310,28.114901,0.131683,0.108463,0.382983,-5.362802,0.050924,-4.395602
770,2149980899,2.213968,-1.795324,28.051832,0.119995,0.228533,0.356346,-4.853339,-0.245651,-4.355158
771,2149997566,2.176246,-1.800085,27.988029,0.159797,0.387534,0.358701,-3.833671,-0.408356,-4.389645
772,2150014233,2.152989,-1.803685,27.930468,0.142701,0.501980,0.357353,-2.954617,-0.321900,-4.018325
773,2150030900,2.146447,-1.808674,27.888210,0.104809,0.698817,0.356510,-1.923501,-0.369181,-3.100955
774,2150047567,2.144645,-1.813833,27.864670,0.118292,0.789387,0.303463,-1.604315,-0.336115,-1.977672
775,2150064234,2.135932,-1.820943,27.864691,0.028224,0.724657,0.234689,-1.975162,-0.399225,-0.562737
776,2150080901,2.113100,-1.830274,27.885977,-0.074050,0.782708,0.229119,-2.782154,-0.483939,0.722643
777,2150097568,2.069518,-1.843363,27.929689,-0.068096,0.975791,0.220124,-3.984773,-0.660116,2.071805
778,2150114235,2.005380,-1.857064,27.992287,0.029030,1.307198,0.154546,-5.181808,-0.657837,3.205077
779,2150130902,1.916244,-1.873862,28.076328,0.150820,1.525956,0.092885,-6.640093,-0.802856,4.494959
780,2150147569,1.796473,-1.895271,28.181463,0.117027,1.505950,0.071774,-8.436391,-1.045882,5.761740
781,2150164236,1.643264,-1.917772,28.305573,0.183778,1.333273,0.032947,-10.403409,-1.090179,6.902401
782,2150180903,1.460263,-1.939578,28.454626,0.278020,1.153858,0.009540,-12.138687,-1.028107,8.392873
783,2150197570,1.264087,-1.960025,28.623415,0.145483,1.031338,-0.020294,-12.886516,-0.946544,9.569520
784,2150214237,1.069410,-1.977847,28.813536,0.081225,0.834578,-0.063958,-12.749694,-0.796236,10.845818
785,2150230904,0.881585,-1.992967,29.023632,0.127567,0.794297,-0.064783,-12.294684,-0.650832,12.034516
786,2150247571,0.705424,-2.007038,29.252392,0.197009,0.796557,0.019804,-11.552672,-0.611350,13.153040
787,2150264238,0.540412,-2.020406,29.498348,0.160173,0.612408,-0.015019,-10.844914,-0.597775,14.180593
788,2150280905,0.387295,-2.033585,29.757711,0.077644,0.521629,-0.011953,-10.099444,-0.620046,14.985295
789,2150297572,0.244788,-2.044858,30.026516,-0.068717,0.520067,0.018187,-9.439698,-0.542055,15.546393
790,2150314239,0.108593,-2.056638,30.303030,-0.137802,0.354472,0.031619,-9.041805,-0.609698,16.006784
791,2150330906,-0.028976,-2.070256,30.581141,-0.087926,0.184827,0.066122,-9.117517,-0.759392,16.097721
792,2150347573,-0.170018,-2.087758,30.860140,-0.014908,-0.002739,0.142505,-9.319652,-1.033012,16.152468
793,2150364240,-0.309263,-2.108957,31.139156,-0.053516,-0.181080,0.200919,-9.205933,-1.295825,16.148550
794,2150380907,-0.440741,-2.129094,31.416067,-0.249535,-0.226895,0.152378,-8.738373,-1.271224,16.021269
795,2150397574,-0.561300,-2.151068,31.691494,-0.223472,-0.163718,0.174321,-8.080522,-1.417729,15.924337
796,2150414241,-0.671194,-2.176227,31.962250,-0.154132,-0.166196,0.136580,-7.444530,-1.639496,15.641183
797,2150430908,-0.768805,-2.204199,32.226261,-0.026451,-0.308961,0.234015,-6.715657,-1.832962,15.226093
798,2150447575,-0.854167,-2.234647,32.482285,-0.015421,-0.487907,0.270349,-5.990737,-2.000443,14.748565
799,2150464242,-0.926714,-2.264270,32.730618,-0.057536,-0.575812,0.302985,-5.231348,-1.965713,14.280303
800,2150480909,-0.981331,-2.293657,32.970295,-0.037534,-0.560873,0.307613,-4.168367,-1.960269,13.756826
801,2150497576,-1.015452,-2.322928,33.202374,-0.020092,-0.473742,0.308879,-2.949074,-1.957375,13.302072
802,2150514243,-1.029572,-2.352324,33.423569,-0.089471,-0.520074,0.318575,-1.767995,-1.959757,12.652123
803,2150530910,-1.026621,-2.382998,33.633751,-0.159207,-0.579774,0.295408,-0.763707,-2.026785,11.991700
804,2150547577,-1.014119,-2.411684,33.835926,-0.249078,-0.604722,0.305481,-0.203839,-1.898401,11.512576
805,2150564244,-0.998688,-2.437751,34.024406,-0.333611,-0.644663,0.376238,-0.057039,-1.724798,10.691608
806,2150580911,-0.983742,-2.459811,34.201954,-0.378223,-0.643205,0.287583,-0.109379,-1.471360,10.039854
807,2150597578,-0.969708,-2.478868,34.366398,-0.381250,-0.551372,0.302683,-0.193939,-1.276460,9.263304
808,2150614245,-0.953981,-2.493665,34.518345,-0.325892,-0.446878,0.293952,-0.122313,-1.006810,8.514707
809,2150630912,-0.938873,-2.506174,34.660728,-0.318651,-0.487886,0.295767,-0.182439,-0.858525,7.940663
810,2150647579,-0.924770,-2.515511,34.792450,-0.324727,-0.564422,0.307488,-0.268972,-0.656722,7.310588
811,2150664246,-0.909984,-2.520549,34.916119,-0.280444,-0.556780,0.332727,-0.248328,-0.390133,6.834256
812,2150680913,-0.895256,-2.521764,35.032215,-0.238312,-0.553480,0.371556,-0.271354,-0.152805,6.379759
813,2150697580,-0.876889,-2.516864,35.138744,-0.185131,-0.583661,0.287845,-0.078426,0.223977,5.813898
814,2150714247,-0.855338,-2.511560,35.237186,-0.142293,-0.504281,0.288274,0.091098,0.256710,5.329382
815,2150730914,-0.828179,-2.502963,35.329071,-0.138035,-0.429751,0.266145,0.409515,0.461931,4.935432
816,2150747581,-0.799698,-2.488375,35.417038,-0.123268,-0.353920,0.239154,0.477645,0.826503,4.704817
817,2150764248,-0.768882,-2.470530,35.501614,-0.124823,-0.377847,0.215827,0.607693,1.026935,4.505729
818,2150780915,-0.732461,-2.448474,35.584160,-0.145109,-0.390257,0.214517,0.937086,1.283446,4.385388
819,2150797582,-0.689789,-2.422526,35.663879,-0.184917,-0.409080,0.170642,1.302848,1.521772,4.219712
820,2150814249,-0.642893,-2.394351,35.742882,-0.186654,-0.376790,0.232679,1.552226,1.658916,4.177541
821,2150830916,-0.592778,-2.365086,35.822601,-0.216271,-0.258876,0.193278,1.744718,1.727289,4.219852
822,2150847583,-0.542583,-2.333211,35.903194,-0.237106,-0.300941,0.197946,1.749174,1.886881,4.275752
823,2150864250,-0.492712,-2.301577,35.984032,-0.305742,-0.370641,0.218599,1.727340,1.876034,4.284473
824,2150880917,-0.443972,-2.267668,36.065235,-0.379133,-0.456381,0.183540,1.657430,2.015867,4.306923
825,2150897584,-0.396902,-2.236794,36.146152,-0.433671,-0.542942,0.170124,1.553826,1.836885,4.285408
826,2150914251,-0.353566,-2.205240,36.223751,-0.492358,-0.644445,0.192358,1.319035,1.881823,4.087255
827,2150930918,-0.313138,-2.172902,36.295280,-0.455268,-0.738599,0.224315,1.127926,1.933227,3.722800
828,2150947585,-0.275602,-2.141026,36.363605,-0.342661,-0.581398,0.256354,0.944654,1.908165,3.529872
829,2150964252,-0.245580,-2.109071,36.427795,-0.221099,-0.454394,0.264801,0.482089,1.915235,3.280546
830,2150980919,-0.225329,-2.080105,36.490276,-0.299621,-0.464969,0.222782,-0.109725,1.737329,3.172754
831,2150997586,-0.213643,-2.050519,36.551662,-0.392127,-0.453896,0.196007,-0.628062,1.775005,3.113384
832,2151014253,-0.205195,-2.022087,36.611134,-0.392269,-0.454487,0.224189,-0.828609,1.705889,2.992390
833,2151030920,-0.198520,-1.995282,36.666222,-0.297304,-0.482930,0.246157,-0.946184,1.608881,2.731831
834,2151047587,-0.195414,-1.971351,36.718071,-0.219743,-0.544656,0.317689,-1.168656,1.436584,2.533282
835,2151064254,-0.191901,-1.949211,36.766151,-0.040929,-0.451303,0.291540,-1.153173,1.329139,2.308159
836,2151080921,-0.190760,-1.927645,36.810528,0.052746,-0.305757,0.346678,-1.303878,1.294959,2.085892
837,2151097588,-0.190482,-1.907660,36.850613,0.082734,-0.209587,0.361181,-1.365144,1.200742,1.828395
838,2151114255,-0.185301,-1.887710,36.885418,0.135033,-0.181958,0.308194,-1.081765,1.199526,1.515139
839,2151130922,-0.163361,-1.867441,36.916145,0.219727,-0.147288,0.286004,-0.084919,1.219824,1.265274
840,2151147589,-0.118249,-1.853534,36.943733,0.310719,-0.052573,0.344103,1.299082,0.839731,1.075535
841,2151164256,-0.047244,-1.844089,36.967529,0.430695,0.038408,0.398888,2.845475,0.574090,0.843612
842,2151180923,0.047994,-1.835412,36.989693,0.445906,0.072193,0.424314,4.296627,0.530599,0.751445
843,2151197590,0.170421,-1.829584,37.003830,0.509784,0.003878,0.351073,5.913236,0.361671,0.271629
844,2151214257,0.319848,-1.824707,37.010445,0.551567,-0.010661,0.344527,7.519064,0.305143,-0.188010
845,2151230924,0.500349,-1.823528,37.004837,0.596396,0.106797,0.215948,9.360951,0.079585,-0.915065
846,2151247591,0.711204,-1.825091,36.986637,0.729583,0.215743,0.273112,11.158862,-0.093384,-1.668309
847,2151264258,0.948922,-1.831276,36.956371,0.814495,0.304582,0.263278,12.748136,-0.384613,-2.387656
848,2151280925,1.213855,-1.840511,36.914356,0.764817,0.364698,0.239883,14.358956,-0.587850,-3.089982
849,2151297592,1.504847,-1.851793,36.859661,0.685410,0.384084,0.236391,15.898427,-0.739670,-3.839476
850,2151314259,1.821776,-1.866263,36.792629,0.716816,0.422322,0.239681,17.430569,-0.968494,-4.570232
851,2151330926,2.160979,-1.882361,36.713409,0.771582,0.514970,0.157539,18.742777,-1.113232,-5.292231
852,2151347593,2.527329,-1.899580,36.623238,0.663546,0.576453,0.129945,20.349047,-1.235226,-5.939209
853,2151364260,2.920540,-1.919659,36.521431,0.579205,0.612126,0.117611,21.936224,-1.473758,-6.614594
854,2151380927,3.340526,-1.941825,36.408268,0.542783,0.544091,0.050830,23.517597,-1.677725,-7.280195
855,2151397594,3.779120,-1.965143,36.283165,0.539301,0.435790,0.027870,24.607058,-1.840405,-7.983203
856,2151414261,4.233953,-1.984701,36.146965,0.600022,0.416097,0.014350,25.556101,-1.718194,-8.644819
857,2151430928,4.700743,-2.003967,35.997356,0.550131,0.439587,-0.027440,26.243193,-1.827100,-9.430621
858,2151447595,5.170641,-2.023428,35.833504,0.473496,0.526833,-0.041983,26.396978,-1.983620,-10.269147
859,2151464262,5.636113,-2.040453,35.652832,0.338775,0.630684,0.021297,26.092432,-2.010936,-11.267968
860,2151480929,6.082737,-2.056396,35.458088,0.238370,0.621863,0.059097,24.928312,-2.116588,-12.100061
861,2151497596,6.503074,-2.066161,35.251179,0.193740,0.581931,0.090776,23.322384,-1.913722,-12.843237
862,2151514263,6.900632,-2.070759,35.034534,0.124246,0.413420,0.060093,21.932096,-1.761121,-13.450361
863,2151530930,7.276340,-2.070743,34.810669,0.059995,0.225210,0.067372,20.605097,-1.625770,-13.901400
864,2151547597,7.625062,-2.070400,34.581303,0.035660,0.296506,0.097881,18.973677,-1.732831,-14.219149
865,2151564264,7.939614,-2.067494,34.347694,-0.039417,0.226752,0.073954,16.914715,-1.693540,-14.483572
866,2151580931,8.216654,-2.063282,34.112362,-0.045164,0.086434,0.090448,14.660699,-1.701557,-14.583894
867,2151597598,8.457749,-2.058538,33.876492,-0.059565,0.154445,0.108274,12.503808,-1.738208,-14.614932
868,2151614265,8.667961,-2.051954,33.637043,0.000555,-0.019063,0.198175,10.644488,-1.715912,-14.836095
869,2151630932,8.849059,-2.048178,33.394531,-0.150106,-0.217717,0.252966,8.892220,-1.958835,-14.984790
870,2151647599,8.999369,-2.044601,33.151421,-0.188827,-0.216726,0.252654,7.044133,-2.018334,-15.013960
871,2151664266,9.103876,-2.043840,32.908897,-0.301181,-0.122126,0.382092,4.298000,-2.211966,-14.944614
872,2151680933,9.153475,-2.047511,32.664520,-0.277445,0.105826,0.407907,0.998544,-2.511826,-15.009385
873,2151697600,9.139978,-2.055602,32.421055,-0.246361,0.151131,0.495530,-2.787176,-2.769414,-14.911022
874,2151714267,9.060501,-2.069094,32.176075,-0.297002,-0.046919,0.454872,-6.752437,-3.092391,-14.956000
875,2151730934,8.912942,-2.088062,31.931723,-0.380195,-0.127693,0.510028,-10.840575,-3.383083,-14.874516
876,2151747601,8.696086,-2.113042,31.690384,-0.435016,-0.179453,0.479752,-14.997950,-3.667143,-14.652665
877,2151764268,8.412814,-2.142430,31.455061,-0.414025,-0.350978,0.499735,-18.976398,-3.812740,-14.265215
878,2151780935,8.074792,-2.176008,31.228981,-0.439066,-0.503638,0.528092,-22.248896,-3.909353,-13.706234
879,2151797602,7.699445,-2.214516,31.014759,-0.422801,-0.639314,0.475918,-24.470016,-4.024266,-12.988453
880,2151814269,7.300308,-2.255677,30.818882,-0.353807,-0.750549,0.427137,-25.863419,-3.955611,-11.902332
881,2151830936,6.891661,-2.298095,30.643744,-0.191803,-0.716541,0.430123,-26.392757,-3.797888,-10.683882
882,2151847603,6.488061,-2.340957,30.491877,-0.136135,-0.708269,0.387483,-26.041117,-3.591089,-9.322010
883,2151864270,6.099638,-2.384170,30.359694,-0.101550,-0.685946,0.363400,-25.088377,-3.423043,-8.171250
884,2151880937,5.731110,-2.424873,30.247042,-0.090398,-0.602188,0.316384,-23.850649,-3.103203,-7.044699
885,2151897604,5.383339,-2.464999,30.149689,-0.146001,-0.554099,0.340131,-22.570698,-2.940126,-6.153309
886,2151914271,5.062469,-2.499993,30.071913,-0.253798,-0.590785,0.359385,-20.909153,-2.494745,-5.030816
887,2151930938,4.775994,-2.529832,30.008894,-0.152871,-0.566893,0.321393,-18.809324,-2.088334,-4.192510
888,2151947605,4.528204,-2.555246,29.959591,0.122816,-0.352244,0.311010,-16.453129,-1.740538,-3.398476
889,2151964272,4.325438,-2.578055,29.915829,0.118810,-0.470615,0.214487,-13.737637,-1.548366,-3.087741
890,2151980939,4.164839,-2.596353,29.871351,-0.078014,-0.669634,0.127442,-11.210196,-1.274386,-3.157676
891,2151997606,4.034512,-2.607623,29.826115,-0.181644,-0.731968,0.130891,-9.395971,-0.851277,-3.234910
892,2152014273,3.931141,-2.612359,29.782230,-0.241918,-0.633915,0.117637,-7.775223,-0.450054,-3.182071
893,2152030940,3.858034,-2.611222,29.737705,-0.280820,-0.649923,0.151332,-5.961049,-0.097994,-3.246512
894,2152047607,3.820007,-2.605215,29.693104,-0.315215,-0.662446,0.127011,-3.855993,0.194778,-3.269769
895,2152064274,3.816346,-2.595171,29.649715,-0.392273,-0.701063,0.099233,-1.790289,0.440980,-3.216507
896,2152080941,3.838899,-2.578917,29.607403,-0.375202,-0.768564,0.101485,-0.214148,0.815284,-3.179753
897,2152097608,3.880077,-2.555567,29.566626,-0.187794,-0.650910,0.041929,0.908886,1.244297,-3.107794
898,2152114275,3.937252,-2.526922,29.521690,-0.048967,-0.481154,-0.013950,1.858810,1.540751,-3.383028
899,2152130942,4.010158,-2.492105,29.467796,-0.124990,-0.450303,-0.038487,2.781034,1.869567,-3.944728
900,2152147609,4.092032,-2.451313,29.406485,-0.211479,-0.359022,-0.029881,3.302162,2.190174,-4.418869
901,2152164276,4.175132,-2.403618,29.337465,-0.223541,-0.264674,-0.003516,3.358985,2.564030,-4.913375
902,2152180943,4.249598,-2.349486,29.266312,-0.268589,-0.295727,0.033505,2.839123,2.933365,-5.071905
903,2152197610,4.310815,-2.292540,29.198591,-0.942621,-0.198962,0.217895,2.056834,3.111424,-4.881320
904,2152214277,4.358454,-2.230063,29.129469,-0.164124,-0.392754,-0.051417,1.242005,3.430712,-4.993733
905,2152230944,4.388595,-2.162368,29.060764,-0.264201,-0.050889,-0.072828,0.197762,3.741164,-4.994912
906,2152247611,4.396495,-2.094193,28.989481,-0.061632,-0.129888,0.173841,-1.137934,3.756570,-5.150676
907,2152264278,4.387472,-2.020129,28.916676,0.001541,-0.104651,0.275609,-2.150993,4.101753,-5.268162
908,2152280945,4.367788,-1.944806,28.842356,-0.010577,0.023196,0.125843,-2.788327,4.170946,-5.368000
909,2152297612,4.348088,-1.874613,28.763973,-0.108438,0.109443,0.190798,-2.791631,3.847661,-5.583799
910,2152314279,4.330994,-1.808833,28.684219,-0.015425,0.207562,0.215212,-2.632755,3.578920,-5.649240
911,2152330946,4.316349,-1.744291,28.608208,0.073123,0.274560,0.230241,-2.473726,3.523508,-5.415602
912,2152347613,4.305508,-1.683464,28.541422,0.221948,0.288680,0.290484,-2.223861,3.344347,-4.846218
913,2152364280,4.298087,-1.630429,28.491009,0.190998,0.380390,0.302664,-1.986495,2.952959,-3.835541
914,2152380947,4.295685,-1.588357,28.459129,0.164185,0.650113,0.436007,-1.651610,2.381437,-2.674799
915,2152397614,4.294090,-1.556943,28.447855,0.211795,0.992157,0.406007,-1.568432,1.837525,-1.392793
916,2152414281,4.283099,-1.537471,28.460005,0.223298,1.239110,0.560285,-2.094773,1.229544,0.060683
917,2152430948,4.241669,-1.525380,28.495863,0.302066,1.150989,0.536583,-3.884191,0.894812,1.506866
918,2152447615,4.151770,-1.520841,28.554312,0.166464,1.128332,0.387273,-6.757117,0.541882,2.899863
919,2152464282,4.006885,-1.529225,28.628923,0.055474,1.101038,0.455927,-10.031141,-0.168442,3.920992
920,2152480949,3.805867,-1.552021,28.723175,0.103547,1.162549,0.414351,-13.367381,-0.963038,5.156820
921,2152497616,3.551983,-1.588068,28.835939,0.120657,1.204086,0.523241,-16.506725,-1.706141,6.314248
922,2152514283,3.244770,-1.635304,28.967646,0.136367,0.991411,0.565372,-19.670406,-2.341440,7.475853
923,2152530950,2.886755,-1.690156,29.120300,0.075852,0.856188,0.521942,-22.675892,-2.776038,8.738067
924,2152547617,2.485868,-1.750751,29.291502,0.073444,0.773730,0.431452,-25.206161,-3.128381,9.850534
925,2152564284,2.052607,-1.818120,29.477922,0.072018,0.744325,0.431315,-27.109062,-3.573225,10.755515
926,2152580951,1.601107,-1.890037,29.674461,0.119127,0.690452,0.358141,-28.170809,-3.913172,11.339515
927,2152597618,1.145612,-1.968074,29.878151,0.352552,0.711347,0.269657,-28.381027,-4.363215,11.748719
928,2152614285,0.700274,-2.050224,30.090960,0.559265,0.635001,0.249884,-27.735607,-4.696783,12.262203
929,2152630952,0.281614,-2.132591,30.312834,0.612421,0.419075,0.216568,-26.096739,-4.800653,12.766848
930,2152647619,-0.099320,-2.213075,30.545839,0.378077,0.307488,0.134953,-23.788469,-4.778587,13.401182
933,2152697620,-1.005198,-2.437468,31.256733,0.128810,0.033442,0.022754,-16.967430,-4.462444,13.342478
934,2152714287,-1.246749,-2.502969,31.480585,0.251733,-0.096346,-0.012150,-15.376477,-4.163375,12.762424
935,2152730954,-1.462229,-2.564189,31.695694,0.151828,-0.241659,-0.026115,-13.820232,-3.947409,12.229484
936,2152747621,-1.643291,-2.617698,31.899477,-0.073752,-0.381278,-0.105354,-11.772696,-3.510838,11.543303
939,2152797622,-1.952981,-2.727005,32.471104,-0.101539,-0.256880,-0.133563,-5.067591,-2.103636,10.480575
940,2152814289,-1.991692,-2.747240,32.649914,-0.158065,-0.261762,-0.117474,-3.271550,-1.554999,10.092323
941,2152830956,-2.004186,-2.757987,32.822117,-0.173219,-0.349052,-0.104258,-1.714566,-0.977573,9.713138
942,2152847623,-1.992839,-2.761324,32.990543,-0.175979,-0.328408,-0.122925,-0.293995,-0.525829,9.500578
943,2152864290,-1.953354,-2.754322,33.156513,-0.220403,-0.257259,-0.105698,1.387075,0.102765,9.380929
944,2152880957,-1.886798,-2.737430,33.320396,-0.220692,-0.210814,-0.113334,3.002955,0.708953,9.273318
945,2152897624,-1.796610,-2.712868,33.485310,-0.200397,-0.233142,-0.113759,4.420440,1.179613,9.352525
946,2152914291,-1.686218,-2.678827,33.650936,-0.379159,-0.317967,-0.041302,5.629436,1.763877,9.406940
947,2152930958,-1.558291,-2.638900,33.814018,-0.463425,-0.434981,-0.015787,6.667904,2.141191,9.262548
948,2152947625,-1.417542,-2.592373,33.973091,-0.497162,-0.377363,0.015779,7.418561,2.565465,9.025554
949,2152964292,-1.271326,-2.544307,34.128555,-0.424407,-0.400911,0.232420,7.728654,2.686012,8.808282
950,2152980959,-1.121414,-2.496256,34.277596,-0.420762,-0.449320,0.278005,7.925207,2.716683,8.415870
951,2152997626,-0.967255,-2.446627,34.419655,-0.447332,-0.511507,0.369041,8.153865,2.841980,7.987074
952,2153014293,-0.810284,-2.400801,34.554317,-0.401164,-0.520073,0.436301,8.296885,2.642880,7.537944
953,2153030960,-0.655363,-2.356014,34.680698,-0.388187,-0.498233,0.431019,8.146564,2.608046,7.029773
954,2153047627,-0.505578,-2.312143,34.803532,-0.355185,-0.528848,0.424330,7.823678,2.574545,6.812181
955,2153064294,-0.366996,-2.272068,34.920341,-0.276854,-0.475034,0.431624,7.131596,2.367261,6.446340
956,2153080961,-0.241456,-2.232091,35.030773,-0.262501,-0.440494,0.471384,6.329214,2.378671,6.057975
957,2153097628,-0.130769,-2.195089,35.135166,-0.303802,-0.364037,0.451491,5.419398,2.214455,5.688345
958,2153114295,-0.034710,-2.163645,35.233852,-0.315517,-0.411207,0.506454,4.524887,1.892170,5.337335
959,2153130962,0.047140,-2.135154,35.327030,-0.304063,-0.423256,0.506550,3.656706,1.723434,5.010440
960,2153147629,0.116207,-2.110924,35.414532,-0.259140,-0.449380,0.518787,2.874200,1.473813,4.663017
961,2153164296,0.176844,-2.090639,35.497173,-0.209681,-0.490265,0.522711,2.356106,1.241761,4.378305
962,2153180963,0.232102,-2.078157,35.576473,-0.183432,-0.552894,0.554258,2.024486,0.777096,4.173750
963,2153197630,0.284795,-2.070236,35.653019,-0.227687,-0.572115,0.522317,1.863817,0.506433,4.011237
964,2153214297,0.338035,-2.067075,35.728596,-0.254748,-0.631608,0.526162,1.894450,0.223900,3.955286
965,2153230964,0.392451,-2.069802,35.803078,-0.294646,-0.634196,0.539060,1.962810,-0.126373,3.893034
966,2153247631,0.446717,-2.078207,35.874920,-0.343193,-0.708425,0.536394,1.948185,-0.465024,3.735427
967,2153264298,0.500354,-2.089757,35.941780,-0.379420,-0.685828,0.561186,1.900418,-0.653290,3.436757
968,2153280965,0.550054,-2.105269,36.004887,-0.321725,-0.571141,0.570976,1.656623,-0.890425,3.211262
969,2153297632,0.590969,-2.123986,36.065857,-0.324136,-0.454020,0.460447,1.125941,-1.081867,3.083199
970,2153314299,0.620593,-2.145978,36.124310,-0.447205,-0.496753,0.418227,0.443823,-1.278445,2.937450
971,2153330966,0.641177,-2.166062,36.182526,-0.358761,-0.482356,0.377970,-0.097674,-1.163380,2.928896
972,2153347633,0.656018,-2.186398,36.238548,-0.180606,-0.396990,0.305670,-0.446685,-1.179772,2.788115
973,2153364300,0.672029,-2.205199,36.294422,-0.082719,-0.344914,0.303839,-0.375290,-1.087362,2.786521
974,2153380967,0.689283,-2.223237,36.350910,-0.069232,-0.262566,0.279813,-0.298234,-1.040580,2.818671
975,2153397634,0.701218,-2.237141,36.409077,-0.109673,-0.184370,0.234390,-0.612361,-0.790779,2.917063
976,2153414301,0.702329,-2.247166,36.467777,-0.188540,-0.157194,0.203918,-1.259696,-0.557332,2.953919
977,2153430968,0.688618,-2.252129,36.527752,-0.170401,-0.151016,0.177104,-2.145947,-0.253514,3.020090
978,2153447635,0.664528,-2.252136,36.587669,-0.045421,-0.123962,0.148726,-2.768566,0.042408,3.016248
979,2153464302,0.635074,-2.247380,36.646908,0.144397,-0.025431,0.156806,-3.092247,0.326005,2.971656
980,2153480969,0.608286,-2.239613,36.705456,0.362452,0.026814,0.119069,-2.934024,0.504500,2.929702
981,2153497636,0.588217,-2.228951,36.758995,0.459777,0.027885,0.156431,-2.543162,0.673941,2.623567
982,2153514303,0.573014,-2.215583,36.808998,0.471050,0.052660,0.139644,-2.259386,0.833636,2.411570
983,2153530970,0.565068,-2.195303,36.853851,0.320140,-0.025091,0.085742,-1.836239,1.245001,2.097277
984,2153547637,0.565135,-2.169868,36.889782,0.377491,-0.041464,0.039783,-1.376593,1.549152,1.558257
985,2153564304,0.576343,-2.141638,36.919182,0.501608,0.121696,0.070368,-0.723264,1.713457,1.166460
986,2153580971,0.597600,-2.110087,36.942974,0.611219,0.181257,0.059369,-0.133391,1.910214,0.827758
987,2153597638,0.626178,-2.080339,36.958099,0.561847,0.227365,0.064020,0.286856,1.797839,0.309958
988,2153614305,0.663332,-2.051591,36.960899,0.602792,0.277139,0.085023,0.774791,1.730874,-0.429999
989,2153630972,0.709508,-2.020817,36.951180,0.566980,0.161918,0.073566,1.289939,1.844300,-1.180694
990,2153647639,0.775209,-1.990527,36.927872,0.619182,0.067228,0.039554,2.433521,1.804626,-2.003887
991,2153664306,0.864346,-1.959410,36.893345,0.655125,0.188368,-0.042061,3.818220,1.843365,-2.677014
992,2153680973,0.981058,-1.930912,36.849800,0.689687,0.389486,0.018617,5.455973,1.674527,-3.217237
993,2153697640,1.123752,-1.904541,36.793903,0.716131,0.436756,0.038375,6.991763,1.528329,-3.961735
994,2153714307,1.293444,-1.881320,36.727833,0.659050,0.434087,0.014548,8.593670,1.318344,-4.569422
995,2153730974,1.490297,-1.859980,36.649063,0.558515,0.342141,0.021972,10.200654,1.175489,-5.329249
997,2153764308,1.950062,-1.823791,36.463261,0.444685,0.276099,0.019646,12.761554,0.855446,-6.432480
998,2153780975,2.207542,-1.809394,36.356133,0.332355,0.445752,0.006104,13.789804,0.642476,-7.029539
999,2153797642,2.477160,-1.800321,36.239304,0.342411,0.557955,0.061446,14.501163,0.270823,-7.599194
1000,2153814309,2.751768,-1.795433,36.112667,0.331602,0.427063,0.063834,14.783031,-0.039392,-8.178808
1001,2153830976,3.023527,-1.792993,35.974327,0.247720,0.215964,0.053366,14.590590,-0.256755,-8.869968
1002,2153847643,3.285332,-1.792666,35.826427,0.198029,0.147546,0.053713,13.975948,-0.452910,-9.434167
1003,2153864310,3.532211,-1.796085,35.670532,0.085314,0.223444,0.117850,13.064863,-0.744959,-9.900558
1004,2153880977,3.759912,-1.804301,35.505901,-0.019402,0.257915,0.172815,11.896923,-1.103627,-10.399291
1005,2153897644,3.965782,-1.815343,35.331539,-0.174220,0.240525,0.226295,10.566625,-1.349073,-10.969865
1006,2153914311,4.143332,-1.832236,35.149158,-0.294811,0.233803,0.264606,8.849534,-1.767201,-11.412886
1007,2153930978,4.290628,-1.852545,34.962463,-0.323518,0.225729,0.317671,7.021528,-2.021266,-11.651085
1008,2153947645,4.406455,-1.875300,34.771263,-0.272840,0.266297,0.284120,5.119873,-2.213835,-11.909309
1009,2153964312,4.496385,-1.904235,34.580608,-0.189113,0.292383,0.354404,3.561557,-2.601137,-11.843152
1010,2153980979,4.569119,-1.935468,34.386364,-0.079311,0.267196,0.416820,2.516199,-2.770962,-12.041253
1011,2153997646,4.634564,-1.972090,34.188862,-0.041386,0.139685,0.389582,2.064801,-3.122612,-12.206863
1012,2154014313,4.698764,-2.011439,33.986885,0.059893,-0.040158,0.393305,1.973043,-3.319945,-12.452017
1013,2154030980,4.762629,-2.052890,33.781303,0.062261,-0.084886,0.409646,1.936610,-3.476760,-12.655411
1014,2154047647,4.830137,-2.095145,33.572708,0.005628,-0.181259,0.409537,2.140064,-3.553970,-12.827119
1015,2154064314,4.897910,-2.140544,33.363110,-0.154206,-0.327119,0.403560,2.143855,-3.761535,-12.867265
1016,2154080981,4.961666,-2.189111,33.150478,-0.154462,-0.396438,0.389853,1.886024,-3.980907,-13.025603
1017,2154097648,5.016252,-2.237951,32.939438,-0.216360,-0.356869,0.377884,1.328538,-4.002460,-12.927775
1018,2154114315,5.057219,-2.287594,32.730579,-0.263955,-0.313776,0.418957,0.505755,-4.050138,-12.790733
1019,2154130982,5.081336,-2.337508,32.530506,-0.391890,-0.384648,0.450874,-0.494978,-4.026805,-12.258027
1020,2154147649,5.090691,-2.387106,32.338043,-0.559874,-0.588591,0.361247,-1.372406,-3.971558,-11.803772
1021,2154164316,5.087543,-2.434908,32.157558,-0.485882,-0.700447,0.350868,-2.102355,-3.802361,-11.101356
1022,2154180983,5.072803,-2.478604,31.992859,-0.348394,-0.603214,0.309692,-2.766263,-3.472520,-10.179542
1023,2154197650,5.052448,-2.518823,31.842857,-0.269910,-0.563376,0.324060,-3.071501,-3.184595,-9.316751
1024,2154214317,5.031695,-2.554834,31.710714,-0.241817,-0.445009,0.303171,-3.054405,-2.836927,-8.279256
1025,2154230984,5.010694,-2.585527,31.596643,-0.286156,-0.332995,0.277919,-3.024912,-2.422168,-7.226728
1026,2154247651,4.993888,-2.611487,31.499037,-0.322925,-0.344147,0.308781,-2.732017,-2.051552,-6.269132
1027,2154264318,4.981190,-2.630061,31.421001,-0.309378,-0.378606,0.289950,-2.434193,-1.506936,-5.136961
1028,2154280985,4.975102,-2.641118,31.358618,-0.305518,-0.364015,0.244118,-1.995665,-0.976215,-4.244038
1029,2154297652,4.974907,-2.647828,31.308737,-0.285893,-0.336808,0.226452,-1.608029,-0.651664,-3.517546
1030,2154314319,4.977943,-2.649002,31.268354,-0.245625,-0.313884,0.212367,-1.388234,-0.272007,-2.981997
1031,2154330986,4.982569,-2.644383,31.234127,-0.270960,-0.345815,0.170013,-1.275999,0.105415,-2.645216
1032,2154347653,4.991105,-2.635692,31.205713,-0.232782,-0.364926,0.190782,-1.025059,0.378524,-2.315939
1033,2154364320,5.004015,-2.622973,31.179981,-0.204191,-0.469039,0.176586,-0.754742,0.632307,-2.178565
1034,2154380987,5.021744,-2.606872,31.156704,-0.236585,-0.530347,0.120823,-0.458775,0.846301,-2.049900
1035,2154397654,5.037815,-2.588867,31.133142,-0.248051,-0.472937,0.128349,-0.558280,0.957319,-2.079687
1036,2154414321,5.049910,-2.567294,31.107557,-0.178412,-0.402424,0.085487,-0.801690,1.158943,-2.216613
1043,2154530990,4.985886,-2.353578,30.849766,-0.197353,-0.176354,-0.019293,-4.783722,2.043465,-3.251084
1044,2154547657,4.914270,-2.313228,30.805826,-0.217935,-0.205918,0.021117,-5.862146,2.185346,-3.409960
1045,2154564324,4.829317,-2.270799,30.761215,-0.290359,-0.298400,0.018209,-6.662069,2.309990,-3.454245
1074,2155047667,3.212932,-2.070668,30.568178,0.169038,0.279705,0.044737,-6.754430,-1.116061,1.535398
1075,2155064334,3.109707,-2.086177,30.610115,0.055924,0.316374,0.037764,-7.559538,-0.789806,2.002600
1076,2155081001,2.995485,-2.096623,30.659742,-0.037697,0.309596,-0.024899,-8.202765,-0.467406,2.423148
1077,2155097668,2.867518,-2.102109,30.718777,0.010434,0.343967,-0.024204,-9.006578,-0.147017,2.975934
1078,2155114335,2.723576,-2.104292,30.791063,0.010365,0.423392,-0.040663,-9.936104,0.081544,3.754996
1079,2155131002,2.561702,-2.102139,30.872623,-0.016606,0.413402,-0.044724,-10.991464,0.356638,4.313302
1080,2155147669,2.374929,-2.094899,30.966698,-0.038575,0.432680,-0.049668,-12.459011,0.679128,5.041716
1111,2155664346,-1.804772,-2.143935,34.537518,-0.425951,-0.281689,0.048066,-2.686414,-0.622401,-1.522393
1112,2155681013,-1.835234,-2.148884,34.520229,-0.396453,-0.211006,0.064025,-3.326808,-0.267051,-1.626137
1113,2155697680,-1.875579,-2.149358,34.504158,-0.420729,-0.168789,0.042887,-3.917283,-0.000807,-1.540834
1115,2155731014,-1.974003,-2.134465,34.483059,-0.408896,-0.262171,-0.034286,-4.530067,0.615556,-1.078461
1117,2155764348,-2.058491,-2.096984,34.481266,-0.298542,-0.199521,-0.022562,-3.723255,1.265709,-0.407716
1118,2155781015,-2.083280,-2.071834,34.489803,-0.249234,-0.150865,0.001934,-2.930900,1.484070,-0.014061
1119,2155797682,-2.094239,-2.043285,34.506870,-0.220037,-0.121599,-0.010144,-2.083222,1.668879,0.499697
1120,2155814349,-2.093532,-2.011048,34.531769,-0.300009,-0.194304,0.043259,-1.367103,1.872179,0.984238
1121,2155831016,-2.083991,-1.973950,34.567051,-0.367444,-0.190409,0.039302,-0.816674,2.140908,1.616309
1122,2155847683,-2.067997,-1.933813,34.613289,-0.386364,-0.155401,0.044261,-0.408855,2.299412,2.279293
1123,2155864350,-2.050687,-1.892482,34.667763,-0.384393,-0.090358,0.104123,-0.315408,2.353801,2.774874
1124,2155881017,-2.035945,-1.849843,34.729332,-0.362981,-0.051964,0.179537,-0.458711,2.417794,3.205103
1125,2155897684,-2.028301,-1.807080,34.796848,-0.313606,-0.064411,0.224527,-0.876339,2.413158,3.558866
1126,2155914351,-2.027433,-1.766014,34.872524,-0.305866,-0.158515,0.251567,-1.271069,2.294072,4.042805
1127,2155931018,-2.030177,-1.725410,34.953217,-0.294305,-0.233772,0.223402,-1.482079,2.255359,4.345650
1128,2155947685,-2.032470,-1.687488,35.041130,-0.249903,-0.196137,0.245440,-1.445773,2.078772,4.770167
1129,2155964352,-2.037294,-1.653056,35.131786,-0.173103,-0.177254,0.350108,-1.596235,1.863164,4.928018
1130,2155981019,-2.044643,-1.622690,35.226727,-0.118290,-0.202056,0.384143,-1.743828,1.609316,5.175450
1131,2155997686,-2.051566,-1.594299,35.322906,-0.101316,-0.213224,0.426574,-1.718971,1.487285,5.247421
1132,2156014353,-2.058399,-1.571884,35.421455,-0.042587,-0.265001,0.434624,-1.712440,1.122983,5.378033
1133,2156031020,-2.063581,-1.554514,35.521679,-0.072218,-0.278133,0.446175,-1.612665,0.816065,5.463708
1134,2156047687,-2.067763,-1.543605,35.623226,-0.044123,-0.181217,0.393767,-1.551874,0.425024,5.529776
1135,2156064354,-2.072915,-1.538544,35.724525,-0.070908,-0.127203,0.458771,-1.611244,0.074437,5.504176
1136,2156081021,-2.080804,-1.537679,35.823761,-0.103175,-0.197819,0.482806,-1.778879,-0.173667,5.372668
1137,2156097688,-2.095353,-1.541565,35.922100,-0.132561,-0.189165,0.367013,-2.179986,-0.457814,5.311235
1138,2156114355,-2.118280,-1.551167,36.017078,-0.171521,-0.129081,0.395594,-2.687707,-0.795057,5.090415
1139,2156131022,-2.148919,-1.563530,36.111038,-0.165294,-0.130472,0.363676,-3.151016,-0.961142,5.023746
1140,2156147689,-2.183209,-1.581226,36.202412,-0.163652,-0.134182,0.313507,-3.372975,-1.278330,4.858223
1141,2156164356,-2.217982,-1.601518,36.290966,-0.134494,-0.153610,0.291879,-3.405119,-1.430918,4.681253
1142,2156181023,-2.249429,-1.624463,36.375332,-0.101967,-0.182887,0.325021,-3.210783,-1.583531,4.423589
1143,2156197690,-2.275428,-1.649757,36.456448,-0.087619,-0.199392,0.275459,-2.887359,-1.719202,4.221594
1144,2156214357,-2.292718,-1.677731,36.535290,-0.083194,-0.211845,0.268235,-2.366537,-1.876476,4.077907
1145,2156231024,-2.301479,-1.708160,36.613529,-0.099209,-0.180412,0.264321,-1.853566,-2.023365,4.036606
1146,2156247691,-2.300496,-1.738857,36.688118,-0.126190,-0.145337,0.226232,-1.272926,-2.031049,3.813366
1147,2156264358,-2.292389,-1.768139,36.762383,-0.141971,-0.136596,0.214815,-0.843733,-1.945208,3.800278
1148,2156281025,-2.278412,-1.798416,36.834820,-0.220403,-0.210056,0.227964,-0.492980,-1.999737,3.690194
1149,2156297692,-2.259436,-1.830341,36.906467,-0.276711,-0.205995,0.175418,-0.192569,-2.095503,3.633014
1150,2156314359,-2.239630,-1.858533,36.976337,-0.307768,-0.153144,0.149886,-0.144046,-1.866475,3.537684
1151,2156331026,-2.222710,-1.884644,37.045925,-0.348297,-0.159438,0.143776,-0.315958,-1.740204,3.535033
1152,2156347693,-2.210495,-1.907582,37.113537,-0.357134,-0.171330,0.116943,-0.600515,-1.544484,3.421902
1153,2156364360,-2.202663,-1.926705,37.180233,-0.326913,-0.164234,0.081591,-0.864441,-1.313022,3.370343
1154,2156381027,-2.199763,-1.942623,37.245792,-0.369792,-0.178369,0.084339,-1.161754,-1.118417,3.311498
1155,2156397694,-2.200580,-1.953086,37.310734,-0.390527,-0.261023,0.070107,-1.385686,-0.789998,3.282620
1156,2156414361,-2.203969,-1.958089,37.377041,-0.396823,-0.266368,-0.000507,-1.536788,-0.466420,3.380998
1157,2156431028,-2.209995,-1.958122,37.442635,-0.437030,-0.350412,-0.001096,-1.696406,-0.167520,3.354873
1158,2156447695,-2.218668,-1.950281,37.504902,-0.462716,-0.379732,0.001745,-1.862658,0.311124,3.173984
1159,2156464362,-2.232202,-1.936920,37.564121,-0.392267,-0.295820,-0.025525,-2.161853,0.647905,2.999574
1160,2156481029,-2.253160,-1.917382,37.620796,-0.314872,-0.153357,0.023043,-2.613597,1.023003,2.858640
1161,2156497696,-2.281368,-1.894398,37.677975,-0.140952,-0.060373,0.068243,-3.049167,1.226432,2.901887
1162,2156514363,-2.317639,-1.868435,37.736305,0.006815,0.014452,0.060034,-3.532016,1.400240,2.982170
1163,2156531030,-2.353289,-1.838109,37.797604,0.030415,0.002941,0.072288,-3.491177,1.652691,3.166184
1164,2156547697,-2.380858,-1.805371,37.859650,0.010768,-0.053243,0.086287,-3.006893,1.793472,3.219177
1165,2156564364,-2.391735,-1.770906,37.923161,0.026660,-0.044174,0.084414,-2.004565,1.891965,3.314174
1166,2156581031,-2.379301,-1.734967,37.987240,-0.023151,-0.066154,0.127545,-0.607533,1.979254,3.349482
1167,2156597698,-2.337148,-1.698496,38.049294,0.016085,-0.021963,0.187438,1.169905,2.018057,3.227489
1168,2156614365,-2.262395,-1.661729,38.109333,0.151019,0.031365,0.241205,3.119428,2.045014,3.097248
1169,2156631032,-2.152979,-1.625012,38.164631,0.274144,0.052862,0.298467,5.189371,2.058832,2.821541
1170,2156647699,-2.007277,-1.590132,38.213394,0.378455,0.043458,0.385574,7.353670,1.970622,2.418896
1171,2156664366,-1.821995,-1.560489,38.253609,0.378743,-0.009849,0.354518,9.713075,1.682825,1.892401
1172,2156681033,-1.596793,-1.534860,38.286503,0.360420,-0.011084,0.353650,12.095610,1.464554,1.435087
1173,2156697700,-1.333833,-1.515410,38.313560,0.344628,0.006259,0.388938,14.351223,1.111598,1.072104
1174,2156714367,-1.033311,-1.503169,38.331970,0.345470,0.118293,0.393291,16.591389,0.698491,0.541114
1175,2156731034,-0.698700,-1.495977,38.342609,0.400806,0.115503,0.403987,18.624586,0.409106,0.068533
1176,2156747701,-0.334894,-1.495906,38.345726,0.435642,0.135008,0.409054,20.364759,-0.009592,-0.393027
1177,2156764368,0.055152,-1.503538,38.340401,0.429049,0.132540,0.405780,21.926395,-0.468713,-0.895242
1180,2156814369,1.353061,-1.560783,38.271992,0.527093,0.425592,0.413670,25.497265,-1.537611,-2.447991
1182,2156847703,2.284106,-1.627518,38.185196,0.436286,0.507934,0.428950,26.662893,-2.276911,-3.366081
1187,2156931038,4.677905,-1.852715,37.769722,0.398380,0.606796,0.307441,26.861675,-3.436772,-6.953802
1188,2156947705,5.148246,-1.900759,37.646172,0.346499,0.549647,0.258320,26.512308,-3.509218,-7.712210
1189,2156964372,5.610256,-1.947062,37.512684,0.323693,0.457335,0.227903,25.986197,-3.518246,-8.285910
1190,2156981039,6.059609,-1.989965,37.368782,0.281122,0.375115,0.142921,25.199499,-3.439103,-8.897990
1191,2156997706,6.489586,-2.026311,37.215687,0.267034,0.338434,0.116819,24.012016,-3.171000,-9.460802
1192,2157014373,6.898552,-2.058852,37.051601,0.302627,0.385756,0.075726,22.721903,-3.086081,-10.121943
1193,2157031040,7.282879,-2.086301,36.874786,0.390497,0.343843,0.035101,21.211142,-2.942200,-10.892923