sep=,
DeviceTag:,Xsens DOT
FirmwareVersion:,2.2.1
AppVersion:,2023.6.0
SyncStatus:,Synced
OutputRate:,60Hz
FilterProfile:,General
Measurement Mode:,Custom modes - custom mode1
StartTime: ,2023-12-12_15:44:41_806 CET
© Movella Technologies B. V. 2005-2023

PacketCounter,SampleTimeFine,Euler_X,Euler_Y,Euler_Z,FreeAcc_X,FreeAcc_Y,FreeAcc_Z,Gyr_X,Gyr_Y,Gyr_Z
1,2137163976,-118.119614,-62.605255,50.374016,-0.053360,-0.588450,0.859915,28.572832,-36.518631,-16.380114
2,2137180643,-118.849815,-62.564854,51.666042,-0.295474,-0.053114,0.699106,27.392412,-33.986816,-14.338980
3,2137197310,-119.635506,-62.531345,52.925953,0.056154,0.108470,0.730667,22.327238,-32.844688,-14.721235
4,2137213977,-120.479713,-62.488007,54.218750,0.333233,0.281662,0.668948,20.543825,-33.749409,-15.131718
5,2137230644,-121.279816,-62.474895,55.504673,0.314446,0.114660,0.703959,22.806675,-32.456226,-17.070093
6,2137247311,-122.018883,-62.506001,56.757423,0.084204,0.067286,0.480764,24.707418,-30.034685,-19.252460
7,2137263978,-122.622139,-62.539124,57.846333,-0.027395,0.068525,0.409833,24.153490,-25.868279,-17.245741
8,2137280645,-123.132660,-62.531952,58.802555,-0.053333,0.355297,0.480235,22.659979,-23.914143,-13.450182
9,2137297312,-123.471336,-62.512665,59.584461,-0.065995,0.151952,0.511656,23.684055,-20.185072,-10.366945
10,2137313979,-123.539246,-62.539650,60.158039,-0.428089,-0.440813,0.196923,28.840050,-13.800506,-9.561256
11,2137330646,-123.464867,-62.619366,60.635120,-0.837284,-0.412198,-0.032486,32.251186,-9.807082,-10.711484
12,2137347313,-123.333435,-62.704975,61.090332,-1.066591,-0.297440,0.064851,34.534172,-9.101761,-10.641847
13,2137363980,-123.222023,-62.757458,61.589947,-0.765451,-0.098478,0.425797,35.717178,-11.210314,-9.620065
14,2137380647,-123.155975,-62.808125,62.128098,-0.202681,-0.041151,0.705152,35.059490,-12.152723,-10.079123
15,2137397314,-123.121361,-62.880684,62.718479,0.436658,0.213677,0.571676,35.980202,-12.615733,-11.934267
16,2137413981,-123.196136,-62.998249,63.428368,0.591987,0.545008,0.318536,35.821186,-13.820825,-15.952108
17,2137430648,-123.251175,-63.160904,64.093719,0.488655,0.641267,0.140668,34.679253,-11.230626,-17.518982
18,2137447315,-123.040749,-63.346363,64.506561,0.238126,0.547008,-0.020151,37.121429,-4.707718,-14.861085
19,2137463982,-122.647629,-63.472080,64.747353,-0.059467,0.647315,-0.049312,38.886707,-2.800906,-9.290151
20,2137480649,-122.177986,-63.503391,64.784554,0.171733,0.676064,0.030452,32.556393,-1.292742,-1.566952
21,2137497316,-121.799461,-63.389198,64.790924,0.118941,-0.118830,0.311216,25.432995,-5.234135,6.272867
22,2137513983,-121.755638,-63.037743,65.212700,-0.377421,-1.679904,0.708556,27.604052,-22.259417,12.468561
23,2137530650,-121.376793,-62.620117,65.445671,-1.131702,-0.961236,0.387916,37.544010,-20.012686,18.557634
24,2137547317,-120.641838,-62.338394,65.502304,-1.573501,0.223193,-0.170480,49.494755,-11.510242,14.227066
25,2137563984,-120.113617,-62.226727,65.784889,-0.976705,0.197751,-0.689310,49.085392,-11.648913,2.338019
26,2137580651,-119.529106,-62.369663,66.128372,0.008609,0.239296,-0.239469,55.698074,-5.508907,-11.655205
27,2137597318,-118.879578,-62.584328,66.401161,0.967391,0.091256,0.256773,55.867001,-1.779809,-14.386016
28,2137613985,-118.102280,-62.733368,66.460388,1.554601,-0.032096,0.165048,52.179626,1.370645,-8.088288
29,2137630652,-117.232689,-62.810768,66.392990,0.837000,0.213151,-0.088525,50.959267,2.333191,-2.700820
30,2137647319,-116.653679,-62.840630,66.505280,-0.477174,-0.323774,-0.308820,43.112370,-3.388852,-2.440548
31,2137663986,-116.267937,-62.858948,66.646881,-0.650968,-0.864453,-0.115130,33.085171,-4.443730,-2.158301
32,2137680653,-115.822235,-62.845623,66.682640,-0.041948,-0.693800,-0.014629,31.034754,-2.691456,0.839325
33,2137697320,-115.346474,-62.790901,66.693214,0.245061,-0.360367,-0.204412,31.492268,-3.138425,3.386940
34,2137713987,-114.826942,-62.755001,66.711800,0.263860,-0.481756,-0.329816,34.549599,-2.835581,2.284873
35,2137730654,-114.183434,-62.750084,66.707054,0.080852,-0.551036,-0.183919,40.740715,-1.464133,0.874480
36,2137747321,-113.481102,-62.757713,66.634529,0.111544,-0.299949,0.019805,40.655270,0.548160,0.937168
37,2137763988,-112.867027,-62.734535,66.573776,0.287585,0.057467,-0.017032,35.989193,-0.469137,2.485142
38,2137780655,-112.293808,-62.669731,66.523674,0.381470,-0.052424,-0.235100,34.100124,-1.678522,4.672896
39,2137797322,-111.893799,-62.562996,66.610626,-0.089158,-0.024607,-0.207409,31.018742,-6.091914,5.582046
40,2137813989,-111.607140,-62.436653,66.764229,-0.196309,-0.514163,0.022468,27.759235,-8.222470,6.012606
41,2137830656,-111.253616,-62.310913,66.849197,-0.059402,-0.552134,0.005909,28.115511,-6.416436,6.708735
42,2137847323,-110.811913,-62.197952,66.867073,0.058282,-0.201351,-0.235292,29.838280,-4.355830,6.695308
43,2137863990,-110.442322,-62.092663,66.980835,-0.053707,-0.034640,-0.334414,30.593203,-6.670018,5.340042
44,2137880657,-110.184578,-61.992096,67.239807,-0.246164,-0.187750,-0.247034,31.574568,-10.384401,3.679951
45,2137897324,-109.950394,-61.902763,67.500023,-0.361094,-0.337802,0.048880,30.217339,-10.199359,3.066280
46,2137913991,-109.660133,-61.835686,67.678703,-0.245608,-0.330101,0.220524,29.255617,-7.578541,2.622154
47,2137930658,-109.423248,-61.771378,67.868889,-0.199227,-0.169577,0.133689,26.654680,-7.830182,2.380342
48,2137947325,-109.308167,-61.707836,68.155090,-0.224477,-0.314818,0.139350,24.412943,-10.393019,1.449766
49,2137963992,-109.181374,-61.648571,68.421761,-0.043577,-0.280683,0.243391,24.080072,-9.797969,1.402164
50,2137980659,-108.921227,-61.600590,68.567871,0.069134,-0.415754,0.294453,25.711033,-6.335996,1.910296
51,2137997326,-108.532661,-61.557682,68.595596,-0.149612,0.020114,0.188560,27.163191,-3.034409,2.733247
52,2138013993,-108.230431,-61.507187,68.691811,0.120851,-0.543301,0.100604,25.600769,-5.024263,2.553176
53,2138030660,-107.657356,-61.492889,68.559692,0.246974,-0.743372,0.113337,29.807650,1.875054,2.529499
54,2138047327,-106.879097,-61.517433,68.281822,-0.172584,-0.104507,0.382007,34.432587,6.575275,1.505758
55,2138063994,-106.438927,-61.503826,68.215080,-0.086688,0.127138,0.564496,25.276340,0.136458,1.879740
56,2138080661,-106.059113,-61.471581,68.204102,-0.080000,0.001982,0.346349,24.595631,-1.697345,2.490860
57,2138097328,-105.689232,-61.441307,68.196472,-0.228400,-0.196314,0.245030,24.182673,-1.743716,2.353421
58,2138113995,-105.285271,-61.409161,68.180092,-0.047110,-0.302937,0.206496,25.763565,-1.519605,2.532494
59,2138130662,-104.859329,-61.381573,68.167694,0.047647,-0.247884,0.284269,27.290474,-1.543886,2.239446
60,2138147329,-104.754082,-61.452778,68.321159,0.658464,0.168057,-0.640377,16.793478,-4.627656,-4.710130
61,2138163996,-105.126465,-61.422203,68.858696,1.319136,-0.522044,-0.378037,8.376842,-16.835644,-1.656465
62,2138180663,-104.826393,-61.382393,69.101746,0.151885,-1.375831,1.858031,33.196556,-8.818974,1.054101
63,2138197330,-103.787521,-61.337605,68.687248,-1.127490,-1.102107,2.295155,42.893009,9.430758,6.100827
64,2138213997,-104.126129,-61.163975,68.828064,-0.278163,0.068581,-0.482933,-10.514688,-7.914434,9.675212
65,2138230664,-103.901146,-60.986137,68.655243,-0.051682,1.847586,-1.649054,6.815857,0.827348,12.114130
66,2138247331,-103.209213,-61.012203,68.021057,0.774410,0.128879,0.390567,10.627845,16.841286,3.354084
67,2138263998,-103.392105,-60.971992,68.191727,0.680787,-0.458097,0.744855,0.368326,-6.846136,1.753993
68,2138280665,-103.589531,-60.975941,68.559059,0.370789,-0.346411,-0.248853,9.816426,-11.801214,-2.175186
69,2138297332,-103.352539,-60.969055,68.508163,0.382782,-0.858855,0.301128,13.939663,-0.109251,1.296548
70,2138313999,-102.986565,-60.945587,68.310310,-0.417132,-0.315375,0.556232,13.972769,3.836459,3.236148
71,2138330666,-102.713806,-60.954468,68.068748,-0.003698,-0.734385,0.563997,6.084087,5.527548,1.594269
72,2138347333,-102.611374,-60.966305,67.937164,0.344637,0.249419,-0.166117,1.636504,2.438861,0.697978
73,2138364000,-102.199852,-61.003944,67.526680,0.742089,0.051809,0.035742,5.546324,10.698654,0.913036
74,2138380667,-101.914497,-61.024982,67.206688,0.398881,-0.188001,-0.057919,2.716388,7.909811,1.261727
75,2138397334,-102.042107,-61.010235,67.211494,0.371789,0.186678,-0.200356,-5.010652,-1.773257,1.386217
76,2138414001,-101.920380,-60.998604,67.064407,0.389124,-0.716150,0.422529,1.978383,2.584635,2.125105
77,2138430668,-101.806351,-60.999245,66.866058,-0.024795,-0.436845,-0.078106,-1.173638,4.201399,1.700075
78,2138447335,-101.597641,-60.999069,66.587067,0.090570,-0.174242,0.085362,0.270694,6.495491,2.210805
79,2138464002,-101.377541,-61.041512,66.313164,0.020774,-0.321775,0.352895,1.217173,6.861804,-0.357630
80,2138480669,-101.352776,-61.080376,66.204239,-0.120660,0.063487,-0.217629,-1.844563,2.109084,-1.110093
81,2138497336,-101.301933,-61.157494,66.132149,0.291769,0.031845,-0.165831,1.652832,1.505546,-3.573125
82,2138514003,-101.116211,-61.242210,65.919403,0.482352,-0.528662,-0.063255,2.347923,5.569310,-3.235525
83,2138530670,-101.160912,-61.290909,65.916824,-0.157397,0.223060,-0.139117,-0.424044,-0.815406,-2.298663
84,2138547337,-101.324966,-61.329094,66.001732,0.186013,-0.407567,0.047477,-2.988797,-3.400739,-2.170894
85,2138564004,-101.164558,-61.372681,65.788071,-0.010177,-0.534243,-0.320714,0.761024,5.089071,-0.811193
86,2138580671,-100.932899,-61.437943,65.497772,-0.055439,-0.039777,-0.255177,0.992947,7.485921,-1.691578
87,2138597338,-100.948105,-61.510357,65.419250,0.230101,-0.292711,-0.067179,-2.661326,1.584895,-3.284471
88,2138614005,-100.991394,-61.593765,65.384285,0.261308,-0.246401,-0.103433,-2.053089,0.485815,-4.166111
89,2138630672,-100.959717,-61.687489,65.323357,0.074080,-0.209470,0.046615,1.079684,1.327909,-4.637064
90,2138647339,-100.986366,-61.782455,65.325943,-0.192369,-0.106832,-0.088643,0.923395,-0.436428,-5.052182
91,2138664006,-101.096710,-61.875320,65.383667,-0.161533,-0.037766,-0.156099,-1.177288,-1.983780,-5.228935
92,2138680673,-101.263130,-61.958225,65.496536,0.060897,-0.089477,-0.018788,-1.616233,-3.613068,-4.944265
93,2138697340,-101.473907,-62.036716,65.662506,0.145268,-0.019716,-0.165776,-1.463113,-5.106097,-4.984795
94,2138714007,-101.742264,-62.109337,65.907753,0.166374,-0.021509,-0.197747,-0.707538,-7.323133,-5.100667
95,2138730674,-101.927383,-62.183655,66.121231,0.154745,-0.135587,-0.020302,2.612746,-6.391510,-5.038929
96,2138747341,-102.047363,-62.256054,66.299278,-0.008694,0.045968,0.112404,4.644423,-5.414975,-4.731384
97,2138764008,-102.344978,-62.311611,66.668159,-0.060528,0.062120,0.092874,4.126944,-10.805530,-4.877621
98,2138780675,-102.724136,-62.350502,67.109238,0.053899,-0.173352,-0.014782,3.082881,-12.938239,-4.391416
99,2138797342,-102.978256,-62.399517,67.454727,0.121786,-0.016711,-0.016417,5.512567,-10.164214,-4.452924
100,2138814009,-103.340065,-62.441071,67.912125,0.096101,0.034868,0.069066,5.003681,-13.255541,-4.764760
101,2138830676,-103.736984,-62.479210,68.387779,-0.007196,-0.122066,0.041295,3.877656,-13.739481,-4.762826
102,2138847343,-104.068085,-62.509674,68.774681,-0.031861,0.027920,0.043649,3.111643,-11.416687,-3.794613
103,2138864010,-104.451996,-62.521564,69.197319,0.049284,0.035561,0.159109,1.853304,-12.614965,-3.020174
104,2138880677,-104.850632,-62.539181,69.646584,0.110453,-0.077499,0.201752,2.384460,-13.207325,-3.616119
105,2138897344,-105.173141,-62.575325,70.034561,0.159073,-0.171823,0.153082,3.698265,-11.250857,-4.318086
106,2138914011,-105.436699,-62.619087,70.347870,0.052212,-0.120948,0.049828,3.268521,-9.099695,-4.261801
107,2138930678,-105.712280,-62.666439,70.662415,-0.049710,-0.107372,0.116505,2.615039,-9.038034,-4.511884
108,2138947345,-106.029785,-62.717934,70.991570,-0.000361,0.019131,0.182423,0.885105,-9.317340,-4.895690
109,2138964012,-106.333519,-62.774399,71.293205,0.088159,-0.020158,0.217552,0.255352,-8.461733,-5.009397
110,2138980679,-106.633675,-62.835564,71.575592,0.038444,-0.048131,0.258882,-0.548983,-7.828805,-5.161127
111,2138997346,-106.937469,-62.911171,71.846123,0.056304,-0.151236,0.223037,-1.396110,-7.223142,-5.924002
112,2139014013,-107.216270,-62.990356,72.090973,-0.013301,-0.119906,0.167932,-1.248222,-6.438292,-5.951393
113,2139030680,-107.475174,-63.068596,72.314857,-0.013242,-0.234071,0.175566,-1.165289,-5.865669,-5.742036
114,2139047347,-107.590500,-63.148823,72.443008,0.112247,-0.349485,0.241480,2.324577,-3.311454,-5.083724
115,2139064014,-107.557777,-63.262012,72.431061,-0.064322,-0.107487,0.172104,3.713695,0.913624,-5.821563
116,2139080681,-107.754662,-63.352554,72.576118,-0.010591,-0.112279,0.187025,-1.649689,-3.523527,-5.808450
117,2139097348,-107.758957,-63.460415,72.574051,0.406113,-0.316208,0.306167,2.021809,0.580903,-5.591496
118,2139114015,-107.642731,-63.558983,72.517822,0.344073,-0.305544,0.166736,6.347496,1.785998,-4.622051
119,2139130682,-107.639610,-63.632618,72.568687,-0.012447,-0.254801,0.185791,5.319086,-1.403743,-4.066863
120,2139147349,-107.644615,-63.710815,72.611755,0.079162,-0.461302,0.261992,4.413626,-1.116944,-4.264259
121,2139164016,-107.594589,-63.791958,72.629707,0.332956,-0.694833,0.069734,6.355299,-0.422763,-4.229605
122,2139180683,-107.435226,-63.882706,72.586784,0.534860,-0.862034,-0.237397,9.639503,1.282473,-4.295123
123,2139197350,-107.027046,-64.014336,72.376740,0.769873,-1.094112,-0.264871,15.559443,6.185799,-5.348116
124,2139214017,-106.118065,-64.217461,71.852440,0.497778,-0.973921,-0.181299,28.626163,15.198092,-7.203472
125,2139230684,-104.679794,-64.519196,70.969749,0.068215,-0.437034,0.083666,40.937328,25.455639,-10.810484
126,2139247351,-103.115768,-64.916779,69.932220,0.151519,-0.087359,0.251452,39.942032,30.100334,-16.208054
127,2139264018,-101.713638,-65.276451,68.866821,0.130557,0.443634,0.133200,28.540815,29.493795,-14.727567
128,2139280685,-100.451126,-65.591286,67.799049,-0.164051,0.298835,0.150199,19.874647,28.332438,-12.853693
129,2139297352,-99.593788,-65.824654,66.913742,-0.700175,0.646233,0.338863,5.416732,22.520288,-9.423995
130,2139314019,-99.159370,-65.946854,66.526108,-0.409992,0.428118,0.267406,7.229053,9.130209,-5.127192
131,2139330686,-98.830833,-66.057343,66.264236,-0.176840,0.101742,0.008794,7.743305,5.910190,-4.993070
132,2139347353,-98.674217,-66.173424,66.204697,-0.249557,0.215179,-0.025801,8.520266,1.048347,-6.105955
133,2139364020,-98.906013,-66.257805,66.476250,-0.182356,0.264565,0.176205,3.393472,-7.164297,-5.454329
134,2139380687,-99.035049,-66.294304,66.592941,0.209244,0.276155,0.410022,1.063753,-3.886074,-2.046250
135,2139397354,-99.092361,-66.283058,66.660530,0.118884,0.589290,0.460459,2.667185,-3.160377,0.965669
136,2139414021,-99.579239,-66.221962,67.125717,-0.111354,0.594968,0.327480,-1.267714,-13.129681,2.344697
137,2139430688,-100.221741,-66.164566,67.772781,-0.101711,0.087267,0.207901,-0.637706,-17.476078,1.253852
138,2139447355,-100.776093,-66.128967,68.370285,-0.182821,0.000160,0.154664,1.920166,-16.090719,0.012531
139,2139464022,-101.558128,-66.081757,69.181046,-0.141714,0.120391,0.042459,-0.052737,-21.328661,-0.484491
140,2139480689,-102.542885,-66.009521,70.148033,-0.035042,0.068148,0.082646,-3.670718,-25.389071,-0.126309
141,2139497356,-103.559555,-65.933235,71.119759,0.032529,-0.184608,0.024276,-5.359457,-25.606525,-0.348590
142,2139514023,-104.309654,-65.868874,71.845642,-0.043353,-0.279755,-0.127019,-2.852503,-19.636862,0.015553
143,2139530690,-104.950188,-65.816185,72.514061,0.072156,-0.237676,-0.060007,0.551405,-18.127302,-0.534710
144,2139547357,-105.524147,-65.768715,73.159164,0.219221,-0.346705,0.036616,3.250595,-17.508400,-0.870000
145,2139564024,-105.834053,-65.735748,73.568130,0.395544,-0.431013,0.011205,6.166690,-11.681280,-0.264912
146,2139580691,-105.911140,-65.711411,73.742584,0.064529,-0.212720,-0.040027,7.307631,-5.983089,0.782487
147,2139597358,-106.200630,-65.653488,74.156433,-0.192387,-0.025759,0.097912,7.648592,-12.229882,1.065099
148,2139614025,-106.552971,-65.561691,74.641830,-0.322525,-0.391204,0.096944,7.772687,-14.538677,2.444779
149,2139630692,-106.769745,-65.430992,74.995522,-0.787885,-0.116365,0.007044,8.698125,-12.126753,5.541421
150,2139647359,-107.088737,-65.221199,75.514473,-0.671048,-0.261329,0.394685,11.543237,-17.542927,8.805784
151,2139664026,-107.222984,-64.911743,75.896034,-0.639181,-0.471596,0.408530,15.096709,-16.143269,15.442099
152,2139680693,-107.345581,-64.539230,76.310555,-0.319446,-0.059316,0.254212,17.521561,-18.225163,18.733429
153,2139697360,-107.448135,-64.145683,76.776131,-0.011464,0.027554,-0.032474,21.426735,-20.046480,19.459955
154,2139714027,-107.580559,-63.792580,77.222954,0.496488,0.043293,-0.120441,18.535379,-19.040060,17.205627
155,2139730694,-107.853088,-63.474739,77.796577,0.845862,-0.148833,-0.168392,16.879740,-21.812809,14.062181
156,2139747361,-108.153435,-63.125927,78.521469,0.237812,-0.258237,-0.134799,23.222803,-26.497910,14.408991
157,2139764028,-108.350151,-62.758934,79.184570,-0.275198,-0.175271,0.238566,26.020317,-25.527340,15.789256
158,2139780695,-108.322563,-62.398094,79.648834,-0.265937,-0.049454,0.355200,28.777315,-20.431288,17.060104
159,2139797362,-108.230087,-62.077522,80.066696,0.103670,0.090465,0.226747,30.120693,-18.566345,15.149266
160,2139814029,-108.275993,-61.748306,80.654350,-0.338686,-0.011529,-0.109838,30.741821,-23.396496,14.102289
161,2139830696,-108.478073,-61.489296,81.378105,-0.222542,-0.272499,-0.365863,28.473095,-25.936060,8.786592
162,2139847363,-108.665985,-61.355938,82.033157,0.354364,0.007074,-0.177480,25.625500,-21.818367,2.143785
163,2139864030,-108.627922,-61.275471,82.518074,0.709054,0.775551,0.271750,30.208605,-16.229094,0.654478
164,2139880697,-108.539452,-61.198250,82.929382,0.547852,0.680271,-0.015943,29.331627,-14.180089,1.155259
165,2139897364,-108.518204,-61.101078,83.275024,0.627243,0.800673,-0.193913,21.824612,-12.785093,2.897065
166,2139914031,-108.691017,-60.927357,83.637466,-0.096886,0.379184,-0.054986,11.041655,-14.759260,7.067353
167,2139930698,-109.042458,-60.775269,84.017616,-0.319567,0.116296,0.102872,1.221580,-14.912202,5.594427
168,2139947365,-109.450615,-60.622425,84.374359,-0.223357,-0.225640,0.114013,-3.433425,-14.359379,5.755261
169,2139964032,-109.827568,-60.529541,84.669235,-0.107406,-0.205816,0.095798,-4.819582,-11.506870,2.878721
170,2139980699,-110.167580,-60.478443,84.880737,0.228400,0.092987,0.208771,-6.969603,-8.366354,1.295357
171,2139997366,-110.548561,-60.456245,85.130745,0.310305,-0.030326,0.149377,-7.417582,-8.843302,-0.770776
172,2140014033,-110.923035,-60.472256,85.372322,0.019134,0.027224,0.059909,-7.466655,-7.786801,-2.877793
173,2140030700,-111.290932,-60.532612,85.583817,-0.029845,-0.176507,0.049378,-8.642036,-5.972410,-5.074403
174,2140047367,-111.691452,-60.626858,85.769829,-0.029869,-0.313889,0.111053,-11.925026,-4.476322,-6.715015
175,2140064034,-112.087212,-60.745956,85.855942,-0.026178,-0.212306,0.108980,-16.846468,-1.130559,-7.021539
176,2140080701,-112.473106,-60.867199,85.880074,0.209838,-0.079156,0.190700,-19.505480,0.661199,-6.445573
177,2140097368,-112.868179,-60.992504,85.911880,0.364395,-0.129294,0.271502,-19.644522,0.593658,-6.741158
178,2140114035,-113.257347,-61.145058,85.913986,0.398842,-0.216735,0.098795,-20.850285,2.081874,-7.890172
179,2140130702,-113.575363,-61.337490,85.886330,0.254840,-0.261736,0.032913,-18.138979,3.872563,-9.721878
180,2140147369,-113.816582,-61.559040,85.837143,0.321923,-0.720328,-0.034995,-14.687467,5.196253,-11.048628
181,2140164036,-113.973160,-61.795475,85.755653,0.516422,-0.991259,-0.068902,-11.312130,6.426816,-11.474426
182,2140180703,-114.042725,-62.066051,85.563942,0.708178,-0.673000,-0.266126,-11.933996,10.107469,-12.069795
183,2140197370,-114.112831,-62.390965,85.354324,0.489402,-0.081774,-0.071344,-12.947754,11.864573,-14.848987
184,2140214037,-114.084824,-62.716499,85.159653,0.092891,-0.450383,0.184456,-6.298825,11.447209,-15.069801
185,2140230704,-113.862175,-62.999584,84.815277,-0.139395,-0.115691,0.437456,-2.635832,14.078349,-11.133213
186,2140247371,-113.650040,-63.241924,84.493553,0.037851,0.157697,0.305006,-2.100141,12.403351,-9.234256
187,2140264038,-113.535187,-63.518883,84.273499,-0.136124,0.239739,0.196913,-2.524160,10.636304,-12.300779
188,2140280705,-113.429047,-63.828331,84.011635,0.365591,0.145218,0.192555,-5.329306,12.348968,-13.692183
189,2140297372,-113.284019,-64.135788,83.654213,0.937417,0.098174,-0.328845,-8.176891,14.509776,-12.644022
190,2140314039,-113.104034,-64.422928,83.357231,0.546446,-0.189333,0.634548,-2.869663,12.460496,-12.229847
191,2140330706,-112.940590,-64.653969,83.062607,-0.314685,-0.779803,0.743521,-3.769552,10.975403,-9.221079
192,2140347373,-112.788254,-64.821884,82.727936,-0.583601,-0.930848,0.103816,-6.633105,10.378166,-5.393527
193,2140364040,-112.551971,-64.913597,82.282249,-0.264603,0.596096,-0.362751,-7.642960,11.166142,-0.140379
194,2140380707,-112.240334,-65.076469,81.910606,0.551324,0.721990,-0.071219,0.877267,11.001101,-4.884600
195,2140397374,-112.250313,-65.266426,81.820274,-0.046101,0.239975,0.188404,-3.133318,4.985456,-9.126332
196,2140414041,-112.158203,-65.451675,81.639221,-0.519720,-0.086898,0.488316,-1.962087,6.955752,-8.016829
197,2140430708,-112.078545,-65.578850,81.410461,-0.000655,-0.296407,0.487939,-5.328967,6.707218,-4.366941
198,2140447375,-111.928001,-65.684555,81.095390,0.035390,-0.402716,0.363048,-5.795605,8.169666,-2.397785
199,2140464042,-111.896187,-65.764130,80.823730,-0.129592,-0.194001,0.145396,-10.576103,6.566529,-1.367219
200,2140480709,-111.825981,-65.864281,80.454048,0.020068,-0.367203,0.033978,-13.639787,9.240143,-1.633054
201,2140497376,-111.600151,-65.966118,79.944809,0.081980,-0.280189,-0.111060,-11.959363,12.411639,-0.501446
202,2140514043,-111.403297,-66.069427,79.499283,0.143311,-0.323309,-0.341773,-10.218474,10.945947,-1.225236
203,2140530710,-111.435677,-66.177917,79.290154,0.388345,-0.154252,-0.370248,-11.023968,5.668164,-3.644817
204,2140547377,-111.471992,-66.274551,79.087112,0.227305,0.158577,0.267403,-10.939035,5.257336,-3.040267
205,2140564044,-111.874908,-66.266022,79.209679,-0.482031,0.219633,0.032304,-15.050958,-4.373693,-0.059972
206,2140580711,-112.290878,-66.218964,79.374352,-0.472212,0.274874,0.275118,-13.525730,-6.185138,1.678613
207,2140597378,-112.668076,-66.148026,79.543564,-0.277589,0.000578,0.296535,-10.955456,-6.851467,2.921150
208,2140614045,-112.932671,-66.089066,79.621201,0.027020,-0.269576,0.042013,-9.225480,-4.545321,3.086030
209,2140630712,-113.166992,-66.045677,79.697479,0.129032,-0.176738,-0.112329,-7.485377,-4.166700,2.229029
210,2140647379,-113.564270,-65.983406,79.938858,0.027905,-0.057630,-0.208562,-8.204878,-8.326155,1.650951
211,2140664046,-114.009041,-65.908340,80.234077,-0.182825,0.031389,0.012856,-8.119434,-9.858409,1.764517
212,2140680713,-114.465973,-65.808434,80.569847,-0.099536,-0.188056,0.070268,-6.632823,-11.414972,2.636669
213,2140697380,-114.893288,-65.698433,80.877121,-0.123883,-0.276408,-0.159261,-6.447694,-11.070751,3.393116
214,2140714047,-115.400459,-65.585449,81.236908,-0.274251,0.219429,-0.101189,-8.363884,-12.378653,2.904975
215,2140730714,-115.981873,-65.463539,81.678787,0.101394,-0.015178,0.025391,-8.353757,-14.509813,2.382297
216,2140747381,-116.590759,-65.320915,82.167412,0.200093,-0.100721,0.006879,-7.482976,-16.174654,2.820621
217,2140764048,-117.183197,-65.174309,82.636307,-0.126584,0.320198,0.147639,-7.606071,-15.923407,3.073316
218,2140780715,-117.823959,-65.017937,83.112968,-0.163000,0.390125,0.321687,-10.120850,-16.455080,3.316555
219,2140797382,-118.427750,-64.855927,83.533211,-0.002676,0.109443,0.347649,-10.997787,-15.440008,4.092755
220,2140814049,-118.989151,-64.686867,83.903755,-0.072428,-0.079200,0.112150,-11.182696,-14.619426,4.898018
221,2140830716,-119.557152,-64.515266,84.307755,0.011488,-0.216613,-0.137819,-9.798291,-15.537809,4.451678
222,2140847383,-120.118454,-64.355843,84.704308,0.030788,0.020317,-0.165831,-9.826925,-15.099945,3.745945
223,2140864050,-120.674858,-64.202179,85.052254,0.125926,0.182796,0.063804,-12.192377,-13.915089,3.923595
224,2140880717,-121.113914,-64.069221,85.225555,0.080321,0.584325,0.399296,-14.603097,-9.422884,5.074515
225,2140897384,-121.415657,-63.965965,85.240990,0.035709,0.717561,0.690547,-14.883926,-5.001551,5.642336
226,2140914051,-121.613899,-63.919788,85.146599,-0.064855,0.591666,0.509783,-14.596598,-0.766794,4.222942
227,2140930718,-121.704987,-63.955132,85.081284,-0.070534,0.395307,0.210485,-6.595193,1.137582,-0.343684
228,2140947385,-121.662224,-64.073219,85.069748,0.169371,0.198507,-0.016003,4.329039,2.541068,-5.310128
229,2140964052,-121.505859,-64.196098,85.058868,0.052767,0.220000,-0.000227,11.171297,2.666110,-5.566179
230,2140980719,-121.403008,-64.299576,85.171257,-0.435639,0.293086,0.123453,14.630276,-0.703120,-6.264335
231,2140997386,-121.498566,-64.312538,85.502693,-0.865850,0.170106,0.184706,14.564693,-8.387476,-4.602569
232,2141014053,-121.813164,-64.232361,85.953194,-0.267357,-0.111568,0.129570,7.858719,-13.954374,-1.505746
233,2141030720,-122.197876,-64.052475,86.322174,0.139454,-1.054289,-0.032431,-0.772877,-15.351919,4.590049
234,2141047387,-122.408928,-63.794445,86.462753,-0.106155,-0.937255,0.046062,-2.700632,-12.848651,11.662186
235,2141064054,-122.344498,-63.525173,86.359840,-0.581132,-0.277811,0.391733,0.721235,-7.773347,15.666195
236,2141080721,-122.118195,-63.297134,86.079857,-0.445390,0.209670,0.701581,0.942042,-2.375068,16.138109
237,2141097388,-121.853912,-63.092220,85.694626,-0.014252,0.392759,0.680637,-2.379999,0.884875,16.505577
238,2141114055,-121.413254,-62.928345,85.046417,-0.031904,0.064425,0.143030,-5.834940,8.434882,18.184986
239,2141130722,-120.716927,-62.786541,84.257851,0.012296,-0.298171,-0.142169,2.062588,12.663204,18.984901
240,2141147389,-120.026619,-62.593281,83.563087,0.003936,-0.387789,-0.008450,6.769110,9.198197,20.231518
241,2141164056,-119.388336,-62.300793,83.060143,-0.386317,-0.019645,0.350463,13.927934,1.989747,22.715775
242,2141180723,-118.869934,-61.938614,82.831924,-1.010900,-0.018146,0.593567,21.390417,-6.426507,22.650770
243,2141197390,-118.524178,-61.695385,82.722290,-0.782559,0.046442,0.215530,17.341057,-5.725856,14.842295
244,2141214057,-118.204552,-61.537621,82.517143,-0.011500,0.561640,-0.191938,10.738793,-0.792714,11.662324
245,2141230724,-117.819069,-61.372910,82.122643,0.311413,0.969455,-0.267190,4.724952,3.899902,14.589180
246,2141247391,-117.329292,-61.137074,81.582207,0.409530,0.568085,-0.077151,3.345286,5.829556,20.314112
247,2141264058,-116.778503,-60.697269,81.066734,0.191486,-0.294183,0.378361,8.405727,-0.057718,30.893322
248,2141280725,-116.186859,-60.141102,80.609276,0.262453,-0.363762,0.072946,14.013661,-4.194563,36.461761
249,2141297392,-115.891266,-59.712696,80.588554,0.639188,-0.433088,-0.208120,19.054876,-12.166474,23.918081
250,2141314059,-115.647560,-59.247501,80.790718,-0.662207,-0.984913,0.001125,27.459209,-19.126600,23.010733
251,2141330726,-115.485893,-58.793442,81.073700,-0.937340,-0.497306,0.493726,26.649033,-21.083111,21.354713
252,2141347393,-115.442032,-58.380913,81.316673,-0.571252,0.170013,0.402571,17.465229,-18.951880,19.629625
253,2141364060,-115.579025,-58.032177,81.553490,0.199504,0.704323,0.083677,6.247137,-17.209299,16.208448
254,2141380727,-115.692192,-57.723038,81.710594,0.274145,0.442246,-0.231055,3.585392,-13.989587,15.104132
255,2141397394,-115.855545,-57.424046,81.871819,0.960995,0.235732,-0.571051,0.756747,-13.916858,14.448944
256,2141414061,-116.037910,-57.157715,82.027039,1.101079,-0.013541,-0.577827,-0.714198,-12.960630,12.718417
257,2141430728,-116.128242,-56.939346,82.083748,0.962772,-0.110338,-0.213184,-0.176049,-8.867199,11.508236
258,2141447395,-116.140854,-56.772213,81.981476,0.441374,0.051088,0.244223,-3.505753,-2.848198,11.037012
259,2141464062,-116.235191,-56.627338,81.772949,0.291294,0.426536,0.142832,-13.726489,0.885746,11.389462
260,2141480729,-116.497787,-56.477993,81.557838,0.291336,0.403550,0.123151,-24.133741,0.948959,11.746891
261,2141497396,-116.828041,-56.375492,81.238220,0.466648,0.292724,0.341638,-33.405685,5.272416,10.814683
262,2141514063,-117.059578,-56.366386,80.771576,0.433026,0.247529,0.838651,-34.819870,12.132752,8.076179
263,2141530730,-116.700821,-56.397503,80.384468,0.020499,0.355044,0.932766,4.567701,10.869068,4.712348
264,2141547397,-116.293343,-56.433865,80.300018,-0.475516,0.024950,1.040158,22.612577,2.039601,-0.139474
265,2141564064,-116.242729,-56.462337,80.578224,0.071925,-0.823310,0.532364,19.330147,-8.961374,-5.055123
266,2141580731,-116.465790,-56.655308,81.005547,1.037891,-0.547077,0.199290,10.397908,-8.963882,-16.085825
267,2141597398,-116.726402,-56.995808,81.348953,0.913994,0.267509,0.421774,3.994148,-2.379949,-22.750854
268,2141614065,-116.777260,-57.234409,81.589905,0.794985,0.721570,0.730234,11.469311,-2.004965,-15.750499
269,2141630732,-117.102394,-57.423977,82.421906,-0.478912,0.449200,-0.038432,24.902300,-20.313694,-21.785419
270,2141647399,-117.262657,-57.269409,82.930901,-2.755465,0.387574,-1.117525,18.482346,-20.339531,1.285191
271,2141664066,-116.945969,-56.723248,82.737801,-2.820421,-0.005592,-1.356396,11.670090,-10.756820,32.603088
272,2141680733,-117.124588,-56.045315,83.010277,-0.942438,0.249902,0.644136,5.283992,-27.998833,32.669258
273,2141697400,-116.710861,-55.602386,82.726944,-0.645067,0.900493,0.551442,13.143376,-4.965449,28.575172
274,2141714067,-115.548225,-55.328339,81.712105,-0.586918,1.280499,-0.118613,21.980381,22.298340,30.517958
275,2141730734,-114.412613,-54.941833,80.625427,-0.245975,1.562609,-0.080563,17.022797,22.537867,37.315739
276,2141747401,-113.384102,-54.379192,79.542099,-0.215532,1.824480,0.292765,11.069381,19.245647,46.648979
277,2141764068,-112.228310,-53.680290,78.311356,0.042825,2.032604,0.977102,11.960386,22.278791,56.020477
278,2141780735,-111.172012,-52.991970,77.266487,-0.706709,0.784408,-0.225800,15.466776,18.054316,52.770729
279,2141797402,-110.189903,-52.526653,76.183777,-1.216982,0.767227,-0.652420,9.585062,25.463238,40.561420
280,2141814069,-109.204071,-52.083580,74.893959,-0.431346,1.274004,-0.305479,0.292250,34.130260,41.535187
281,2141830736,-108.294647,-51.606991,73.652229,-0.224739,1.307963,-0.218390,-1.639754,32.931866,42.427536
282,2141847403,-107.398598,-51.090485,72.378029,-0.411689,1.427791,-0.351064,-3.568516,34.490425,44.690479
283,2141864070,-106.503143,-50.519398,71.192329,-0.441904,0.798527,-0.082925,0.968971,31.552370,46.441669
284,2141880737,-105.575470,-49.900528,70.054199,-0.112110,0.576497,0.161299,5.560062,30.279701,48.318237
285,2141897404,-104.515266,-49.433086,68.891792,-0.988213,0.195638,-0.732328,12.819898,34.844769,39.361450
286,2141914071,-103.487068,-49.049664,67.656502,-0.617276,0.743225,-0.508073,7.921619,39.917004,34.586895
287,2141930738,-102.538902,-48.654366,66.454193,-0.375719,0.635584,-0.189905,4.938465,39.441486,34.354816
288,2141947405,-101.589417,-48.234676,65.269547,-0.077940,0.701371,0.306696,6.149177,39.377731,35.037193
289,2141964072,-100.565605,-47.777927,63.868439,0.490450,0.566268,0.337592,1.315787,48.462517,38.259399
290,2141980739,-99.423882,-47.282074,62.252380,1.504210,0.409988,-0.569312,-0.654173,57.842422,41.219307
291,2141997406,-98.465424,-46.740200,60.771767,1.805925,0.370174,-1.011065,-5.105681,53.312412,42.095924
292,2142014073,-97.883972,-46.184032,59.658573,0.822352,-0.046387,-0.573704,-11.160388,39.328655,40.136631
293,2142030740,-97.614731,-45.633652,58.791790,-0.376924,-0.441546,0.151966,-18.829969,29.940294,38.164291
294,2142047407,-97.577339,-44.944023,58.067467,-1.646612,-1.212741,0.822931,-26.275148,23.368889,45.622402
295,2142064074,-97.659294,-44.210880,57.381882,-0.712728,-0.837550,0.697968,-31.413561,21.740023,48.044292
296,2142080741,-97.707138,-43.385738,56.689701,0.359542,0.188028,0.400887,-29.240631,21.621439,53.628124
297,2142097408,-97.602478,-42.454166,56.142735,1.078603,0.170900,-0.548585,-13.698012,14.904265,59.155769
298,2142114075,-97.674507,-41.536995,55.905079,1.239195,0.489615,-0.691536,-11.490927,1.720252,56.510544
299,2142130742,-98.056099,-40.697025,55.903603,0.753007,0.105369,0.277206,-20.582367,-8.293531,50.493919
300,2142147409,-98.253136,-39.901505,55.749557,-0.013427,-0.216658,0.954852,-15.429540,-1.256686,48.810986
301,2142164076,-98.296463,-39.158787,55.351002,0.093287,-0.499380,1.316723,-15.450336,10.373564,47.315914
302,2142180743,-98.568451,-38.421585,54.949852,0.203219,-0.470545,0.151505,-29.026327,10.606729,47.067852
303,2142197410,-99.209404,-37.762840,54.923183,0.551587,-0.606113,-0.453897,-37.073345,-6.329656,39.808239
304,2142214077,-100.117004,-37.270264,55.073727,-0.002981,-0.227877,-0.446089,-46.584042,-13.487517,28.496298
305,2142230744,-101.349434,-36.862568,55.477570,0.417040,0.112994,-0.016320,-56.965935,-25.017792,20.996672
306,2142247411,-102.694229,-36.424530,56.084824,0.384071,0.227630,0.370950,-56.568096,-35.528149,20.180380
307,2142264078,-103.928032,-35.969131,56.587799,-0.089539,0.386251,0.244941,-53.836765,-31.451597,21.547342
308,2142280745,-105.063293,-35.528496,56.936962,-0.183017,0.442666,-0.201769,-53.503681,-24.541674,21.904701
309,2142297412,-106.103165,-35.077023,57.149998,-0.162049,0.173347,-0.048921,-52.628605,-18.798021,23.852936
310,2142314079,-107.161552,-34.651615,57.263138,-0.464092,1.089566,0.469628,-57.253876,-14.103679,23.426624
311,2142330746,-108.366089,-34.234161,57.333099,0.180549,0.875479,1.159625,-67.525154,-12.403910,23.361000
312,2142347413,-109.426094,-33.865124,57.123486,0.788384,0.100373,1.227020,-68.272949,1.223215,24.890364
313,2142364080,-110.270477,-33.548870,56.615311,0.816751,-0.141153,0.793250,-65.213676,15.954376,27.028374
314,2142380747,-111.011345,-33.282730,55.921497,0.319098,0.419963,0.487519,-65.010605,25.425110,27.763802
315,2142397414,-111.818413,-33.087921,55.207512,-0.175376,0.722995,-0.085761,-69.498611,27.643244,24.540710
316,2142414081,-112.594940,-32.984112,54.428513,-0.193451,0.415406,0.104118,-69.709167,32.461563,21.149309
317,2142430748,-113.416641,-32.888672,53.694920,0.019581,0.635432,0.372621,-70.867096,30.303061,20.279186
318,2142447415,-114.290421,-32.729649,53.074619,0.471728,0.427600,0.709458,-70.227249,23.293949,21.948641
319,2142464082,-115.011742,-32.584679,52.467514,0.608156,-0.067711,0.570006,-60.578800,22.789976,21.272718
320,2142480749,-115.505943,-32.582829,51.884182,0.029632,0.100942,0.049940,-46.133663,25.161682,13.254281
321,2142497416,-116.000084,-32.749584,51.470154,-0.353287,0.098038,-0.335686,-40.695312,21.718985,0.648743
322,2142514083,-116.538658,-33.037205,51.116291,-0.090628,0.410314,0.047672,-41.480762,22.162519,-7.010904
323,2142530750,-117.032509,-33.334682,50.676380,0.907297,0.942095,0.271971,-41.717045,26.302389,-5.405453
324,2142547417,-117.437302,-33.627735,50.136158,1.227296,1.049081,0.365048,-39.800747,30.617191,-2.691598
325,2142564084,-117.881386,-33.912312,49.655361,0.758489,1.255054,0.138319,-40.318989,27.702496,-3.416840
326,2142580751,-118.465645,-34.200695,49.285957,0.207052,0.887704,0.114767,-45.110420,22.895996,-6.004017
327,2142597418,-119.172989,-34.540886,48.991535,0.125009,0.869243,-0.105154,-50.060905,21.154236,-10.272161
328,2142614085,-119.962456,-34.883244,48.821686,0.208457,1.056971,0.022182,-50.817261,15.958307,-13.153106
329,2142630752,-120.758400,-35.295223,48.521938,0.434971,1.090990,0.510033,-55.749649,23.733477,-13.306835
330,2142647419,-121.518776,-35.795837,48.075287,0.836249,1.047565,0.494296,-58.851368,32.730480,-13.851604
331,2142664086,-122.118225,-36.435257,47.487316,0.885359,0.965185,0.372456,-54.414799,42.982807,-16.988390
332,2142680753,-122.694527,-37.174843,46.772964,0.714413,1.116928,0.209096,-57.911385,51.289696,-18.485378
333,2142697420,-123.300735,-37.961365,45.986526,0.853132,1.383287,0.192304,-62.793972,55.602100,-18.622902
334,2142714087,-123.821358,-38.801064,45.111916,0.518259,0.973095,0.443830,-61.477699,60.666199,-18.651424
335,2142730754,-124.052483,-39.767654,44.098782,0.304856,1.022982,0.311176,-50.014565,69.943993,-21.259209
336,2142747421,-124.183739,-40.817432,43.211880,0.235388,0.662103,0.244697,-39.955090,67.468437,-28.787605
337,2142764088,-124.419312,-41.957489,42.407703,0.239290,1.211975,0.136103,-43.698715,66.982491,-35.518524
338,2142780755,-124.595604,-43.074570,41.576965,-0.320978,1.009206,0.439501,-41.930317,66.772903,-33.827503
339,2142797422,-124.778183,-44.157803,40.708298,-0.023910,0.779908,0.723980,-44.575783,66.543892,-31.378771
340,2142814089,-124.818497,-45.257381,39.826321,-0.084087,0.693006,0.121505,-37.318050,67.061310,-32.122936
341,2142830756,-124.715210,-46.364033,38.893108,-0.004089,0.472938,-0.095412,-31.619129,68.453094,-31.704000
342,2142847423,-124.593979,-47.422863,38.043144,-0.179146,0.698308,-0.005130,-27.631863,63.316940,-31.856890
343,2142864090,-124.315834,-48.459949,37.245979,-0.578990,0.890045,0.030357,-16.497427,60.144604,-32.596916
344,2142880757,-123.895477,-49.491508,36.400387,-0.122337,0.726869,0.021426,-10.732124,60.805958,-31.994747
345,2142897424,-123.276176,-50.536087,35.507313,0.178016,0.671895,0.108789,-1.574363,61.877335,-32.579216
346,2142914091,-122.605026,-51.561245,34.764797,0.176799,0.513941,0.161511,7.940028,55.472538,-35.809483
347,2142930758,-121.856369,-52.605415,34.165371,-0.594426,0.304331,0.147029,18.868799,50.630566,-40.629761
348,2142947425,-121.076714,-53.797157,33.725872,-0.896861,0.682336,-0.273761,27.984976,49.315022,-52.165668
349,2142964092,-120.394165,-54.882683,33.443714,-0.299705,1.432123,-0.107204,29.520781,40.289246,-50.364990
350,2142980759,-119.976921,-55.922688,33.502426,0.383270,1.032065,-0.207758,30.254929,28.160770,-54.371235
351,2142997426,-119.851242,-56.799206,33.739620,0.428150,1.353972,-0.530113,21.715000,17.907003,-48.945232
352,2143014093,-119.384277,-57.588482,33.776169,-0.307787,0.605620,0.651903,32.182129,20.885406,-41.184227
353,2143030760,-118.769722,-58.330132,33.571270,-0.484703,0.521092,0.459702,28.772234,25.838322,-35.149452
354,2143047427,-118.200943,-58.989708,33.348015,-0.341478,0.989536,-0.264134,25.003452,23.512962,-30.889940
355,2143064094,-117.712517,-59.628345,33.239258,-0.093123,0.656779,-0.511861,26.012312,19.416952,-31.714911
356,2143080761,-117.187660,-60.232502,33.224415,-0.266396,0.469521,-0.534984,33.040108,15.615916,-31.395535
357,2143097428,-116.505409,-60.832691,33.095165,-0.818587,-0.051694,-0.453023,36.495911,18.177774,-29.838604
358,2143114095,-115.835503,-61.332981,32.904144,-1.185766,-0.545221,-0.164254,32.480862,16.724058,-23.930576
359,2143130762,-115.449638,-61.694427,32.915237,-0.896163,-0.006875,0.055266,26.063425,7.608109,-19.124872
360,2143147429,-115.315903,-61.970367,32.992260,-0.272002,-0.151447,0.561201,14.428647,3.635683,-15.331923
361,2143164096,-115.150513,-62.147285,32.897530,0.522225,-0.772793,0.586169,7.228156,5.444373,-7.906248
362,2143180763,-114.956650,-62.208748,32.765862,0.692927,-0.500777,-0.000145,6.975281,3.416216,-1.222546
363,2143197430,-114.870125,-62.175056,32.850502,0.233244,-0.405483,0.103214,12.010051,-4.490524,1.397090
364,2143214097,-114.929802,-62.235374,33.246014,-1.060097,-0.483741,0.184360,19.740545,-10.001828,-7.381119
365,2143230764,-115.190376,-62.432255,33.772594,-0.813097,-0.619661,-0.571236,14.685449,-9.776132,-16.354355
366,2143247431,-115.764206,-62.648762,34.531025,-0.796166,-0.210968,-0.729103,8.285324,-14.845681,-20.195303
367,2143264098,-116.577095,-62.862495,35.426247,-0.268535,-0.206507,-0.071460,1.321152,-17.901819,-21.796509
368,2143280765,-117.529869,-62.959652,36.586620,-0.039952,-0.737550,0.630892,7.155263,-27.077768,-19.054583
369,2143297432,-118.460274,-62.894966,37.891197,-0.266831,-0.786030,0.744095,16.216894,-34.768127,-12.743181
370,2143314099,-119.163376,-62.755695,39.064014,-0.350254,-0.482701,0.513153,22.765490,-33.676224,-7.615405
371,2143330766,-119.759789,-62.538025,40.163383,-0.096661,-0.162444,0.372006,25.142847,-34.301144,-2.980863
372,2143347433,-120.304359,-62.307964,41.153149,0.212893,-0.533499,0.014942,22.307854,-32.196182,-1.257565
373,2143364100,-120.913307,-62.072762,42.091492,0.153452,-0.653134,-0.122218,15.601640,-31.277937,-0.671709
374,2143380767,-121.552124,-61.850094,42.952381,0.439163,-0.563380,0.062763,9.607887,-29.173897,-0.611364
375,2143397434,-122.403633,-61.612358,44.002182,0.109094,-0.252721,0.087113,6.727404,-34.344025,-3.141577
376,2143414101,-123.298302,-61.347904,45.090611,0.068554,0.086910,0.212303,6.044120,-36.288269,-3.028870
377,2143430768,-124.276688,-61.023911,46.305950,-0.272530,0.237480,0.378878,7.537884,-41.508965,-2.832577
378,2143447435,-125.338287,-60.639595,47.674892,-0.450919,0.451601,0.360173,10.367486,-47.514080,-3.365204
379,2143464102,-126.417648,-60.188686,49.197201,-1.155695,0.586331,0.161932,17.012461,-53.878666,-3.954223
380,2143480769,-127.563484,-59.740128,50.953457,-0.713252,0.114666,-0.121186,24.819052,-59.804981,-9.687012
381,2143497436,-128.651825,-59.311943,52.847534,-0.362588,0.225542,-0.517490,34.990124,-62.688236,-14.802357
382,2143514103,-129.761902,-58.973171,54.942616,-0.480561,0.493931,-0.209468,43.654812,-64.294899,-24.455835
383,2143530770,-130.743408,-58.605484,57.005177,-0.516471,0.323356,-0.164983,49.296925,-64.683067,-24.048613
384,2143547437,-131.661118,-57.983185,58.931534,-0.608134,0.518999,-0.150091,45.612518,-71.779266,-11.372232
385,2143564104,-132.509552,-57.168793,60.703766,-0.865880,-0.231631,0.905108,41.186996,-76.542503,-1.398196
386,2143580771,-133.067917,-56.304752,62.196209,-1.082735,-0.441308,1.253872,43.713005,-72.743828,5.231777
387,2143597438,-133.571960,-55.440880,63.702888,-1.183421,-0.216434,1.127629,46.935673,-73.945969,3.461976
388,2143614105,-134.048141,-54.562637,65.399956,-0.918924,-0.062977,0.112877,57.182869,-80.105705,-1.856549
389,2143630772,-134.401123,-53.722404,67.046280,-1.125477,0.458814,0.034173,61.225189,-78.109535,-3.683362
390,2143647439,-134.561005,-52.939617,68.407906,-0.464035,1.029979,0.638552,58.282570,-69.205376,-0.127619
391,2143664106,-134.494766,-52.223789,69.640968,0.537486,1.288037,0.686316,65.074234,-63.652699,-0.354465
392,2143680773,-134.259903,-51.549053,70.785355,0.388451,0.738395,0.687302,70.453430,-60.098015,-0.154091
393,2143697440,-133.942810,-50.931221,71.731583,-0.708505,0.447954,0.815478,65.632248,-52.814728,2.436502
394,2143714107,-133.533325,-50.309875,72.617615,-0.974307,0.807639,0.681643,67.999039,-51.637783,4.172467
395,2143730774,-133.007889,-49.709980,73.409035,-1.200855,0.825676,0.693787,70.237564,-48.380238,5.848638
396,2143747441,-132.327835,-49.039551,74.073563,-0.999020,0.541611,0.412757,73.395882,-47.845543,12.541828
397,2143764108,-131.611252,-48.356308,74.521317,-0.645925,1.095091,0.181076,65.508659,-42.093716,19.175238
398,2143780775,-130.787292,-47.705639,74.856781,-0.350674,0.886779,0.377929,66.735802,-37.341053,21.067430
399,2143797442,-129.850922,-47.050652,75.115623,-0.093339,0.846424,0.451248,69.935486,-34.942451,23.718048
400,2143814109,-128.862457,-46.388966,75.146202,-0.189207,0.873384,0.493736,62.975594,-27.651100,30.458607
401,2143830776,-128.025528,-45.743027,74.974113,0.048214,1.042577,0.447695,45.107697,-19.984800,35.371723
402,2143847443,-127.140022,-45.102962,74.755913,0.495702,0.738034,0.212742,46.130116,-17.638971,36.602386
403,2143864110,-126.088287,-44.540997,74.497116,0.037534,1.082746,0.212447,54.485470,-12.769506,34.197781
404,2143880777,-124.759171,-43.969955,74.105125,-0.500496,0.949007,0.524895,65.656212,-7.633434,38.251534
405,2143897444,-123.304672,-43.402733,73.477554,-0.797639,0.731974,0.379470,63.591152,2.013437,44.009647
406,2143914111,-121.762962,-42.886345,72.605476,-0.317991,0.467701,0.443069,59.047867,14.016144,47.216019
407,2143930778,-120.265251,-42.614113,71.669273,-0.015641,0.211240,-0.216875,54.053112,25.430483,35.820362
408,2143947445,-118.897682,-42.318989,70.837234,0.576316,0.699953,-0.722256,50.664516,21.782259,34.150368
409,2143964112,-117.745377,-42.042667,70.197998,0.020433,0.906416,-0.865047,45.699745,15.650612,28.651056
410,2143980779,-116.710274,-41.741344,69.546608,-0.347189,1.151890,-0.288448,38.327156,16.096367,29.958586
411,2143997446,-115.740479,-41.586819,68.821289,-0.145047,1.520744,0.417067,31.576456,23.561266,23.255217
412,2144014113,-114.672714,-41.435951,67.944321,0.585374,0.710030,0.660371,31.500883,30.291534,25.546774
413,2144030780,-113.500114,-41.182026,66.998436,-0.769969,-0.889277,0.116280,35.204357,31.192402,31.881721
414,2144047447,-112.223175,-41.060757,65.914734,0.008472,-0.592211,-0.606989,36.160469,40.809425,26.309298
415,2144064114,-110.850525,-40.985161,64.670647,0.566324,-0.504444,-0.751996,35.677147,49.212025,25.465679
416,2144080781,-109.660629,-40.940636,63.467621,0.456292,-0.417382,-0.640959,26.390060,48.706635,21.949926
417,2144097448,-108.769989,-40.895901,62.488533,0.863205,-0.151439,-0.610118,17.272163,39.538193,17.718134
418,2144114115,-108.048035,-40.863277,61.757992,0.786961,0.098952,-0.697629,16.941591,29.326756,12.899069
419,2144130782,-107.462837,-40.835094,61.289158,0.738289,0.218545,-0.374904,19.027180,18.249283,8.675742
420,2144147449,-107.014305,-40.822922,61.031933,0.367568,0.062687,-0.200645,19.134987,9.441595,4.736522
421,2144164116,-106.729301,-40.799232,60.941414,0.296707,-0.486716,-0.092573,15.864552,2.026869,3.128549
422,2144180783,-106.570000,-40.764488,60.935081,0.483227,-0.707193,0.206870,11.621337,-1.815019,2.658029
423,2144197450,-106.397636,-40.675472,60.969124,0.073229,-0.978411,0.607926,13.990224,-4.496915,5.260168
424,2144214117,-106.222130,-40.577770,60.992817,0.478725,-0.824691,0.638321,13.775322,-4.175603,5.899154
425,2144230784,-106.005791,-40.496040,60.994648,0.184811,-0.426211,0.538614,15.365554,-2.927868,5.267776
426,2144247451,-105.828659,-40.451721,61.036640,0.174168,-0.018131,0.328359,14.584517,-4.062485,2.608918
427,2144264118,-105.719688,-40.431858,61.101540,-0.085831,-0.042472,0.211973,11.385947,-4.670286,0.918171
428,2144280785,-105.681236,-40.405132,61.212021,0.381301,-0.573477,0.045963,8.921721,-6.778788,0.756670
429,2144297452,-105.613663,-40.361794,61.378895,0.368675,-0.932201,0.101774,12.860971,-9.537677,1.024784
430,2144314119,-105.593155,-40.330936,61.608635,0.040509,-0.323952,0.225600,12.475939,-12.109119,-0.464487
431,2144330786,-105.656151,-40.348633,61.849598,0.286697,-0.083213,0.549649,7.897663,-11.811446,-3.410666
432,2144347453,-105.862930,-40.399380,62.086094,0.500645,0.128211,0.472210,-0.895971,-11.060452,-5.286489
433,2144364120,-106.131859,-40.443890,62.321003,0.435648,-0.154490,0.466179,-4.673680,-11.070034,-4.943754
434,2144380787,-106.397278,-40.483643,62.507050,0.495971,-0.133307,0.488924,-6.360481,-8.969916,-4.086098
435,2144397454,-106.648766,-40.524960,62.686138,-0.205099,-0.181080,0.403582,-5.786256,-8.613937,-4.117076
436,2144414121,-106.949631,-40.527855,62.839317,-0.061537,-0.542760,0.385932,-9.756291,-8.128695,-1.604329
437,2144430788,-107.198326,-40.497189,62.910851,-0.090413,-0.733585,0.475383,-9.806426,-5.145759,1.381479
438,2144447455,-107.406219,-40.474342,62.965527,0.256103,-0.387175,0.501550,-8.022885,-4.275939,1.148403
439,2144464122,-107.631920,-40.435745,63.044697,-0.052856,-0.505685,0.467804,-8.131370,-5.638664,1.700421
440,2144480789,-107.837753,-40.425606,63.025688,0.277272,-0.021997,0.247472,-10.756583,-0.845437,1.421614
441,2144497456,-108.236565,-40.426495,63.069721,0.441199,0.072149,0.153754,-19.892002,-3.381457,-0.091988
442,2144514123,-108.609375,-40.468246,63.084003,0.046430,-0.663248,0.050833,-19.481915,-1.314868,-2.003569
443,2144530790,-108.927422,-40.560036,63.064976,0.354277,-0.388588,0.026311,-17.499554,1.111983,-4.352039
444,2144547457,-109.258453,-40.655312,63.039185,0.311904,-0.167572,-0.068964,-18.540979,1.496392,-4.436970
445,2144564124,-109.645523,-40.776154,62.987553,0.202830,-0.169793,-0.080062,-22.915054,3.145133,-5.474003
446,2144580791,-110.095642,-40.859894,62.886398,0.257896,0.074681,0.063661,-28.645184,4.545236,-2.583240
447,2144597458,-110.482941,-40.921204,62.678078,0.297968,0.072375,0.106888,-29.088413,8.654002,0.408223
448,2144614125,-110.716408,-40.991074,62.366207,0.410441,-0.057845,0.162626,-23.945940,13.224250,1.633012
449,2144630792,-110.941177,-41.015545,62.187126,-0.468654,0.135587,-0.198433,-18.210512,6.617069,2.093860
450,2144647459,-111.464424,-40.975399,62.325218,-0.542303,0.061310,-0.335901,-23.625854,-8.185669,0.563205
451,2144664126,-112.137924,-40.894207,62.629009,-0.009241,0.364997,-0.329359,-26.141571,-16.079691,-0.011090
452,2144680793,-113.033646,-40.775024,63.122711,0.292374,0.795393,-0.248184,-32.045246,-24.921085,-1.426316
453,2144697460,-114.017250,-40.624832,63.656921,-0.049812,-0.041905,-0.215983,-35.792709,-27.355991,-0.854932
454,2144714127,-114.635025,-40.584576,63.897289,-0.359252,-0.452523,0.201398,-25.351761,-12.456462,-1.730245
455,2144730794,-115.199501,-40.603043,63.918709,0.165831,-0.481627,0.522698,-30.700720,-1.903337,-0.836411
456,2144747461,-115.705971,-40.604050,63.727051,0.609264,0.593349,0.184181,-35.539593,6.426224,4.276528
457,2144764128,-116.406372,-40.507404,63.441494,0.339074,0.725589,0.055623,-50.832775,7.659623,11.508775
458,2144780795,-117.520332,-40.317162,63.223450,0.577999,0.636258,-0.181227,-72.992073,2.223168,15.271622
459,2144797462,-118.866409,-40.091324,63.088909,0.240221,-0.418545,-0.274769,-83.647362,-2.456116,15.437519
460,2144814129,-120.194435,-39.980942,62.883141,0.061579,-0.302567,-0.277455,-85.290871,3.474806,11.002768
461,2144830796,-121.532524,-39.944466,62.595459,0.218911,0.210014,-0.080611,-89.037231,8.744918,9.244661
462,2144847463,-122.722572,-39.976639,62.182858,0.548405,0.036561,0.518695,-84.973099,15.613142,9.036701
463,2144864130,-123.618622,-40.089302,61.610233,0.590193,0.071449,0.752685,-73.530411,24.235863,9.317568
464,2144880797,-124.368126,-40.220665,60.968327,0.664487,0.187734,1.068582,-67.482315,27.337099,10.510607
465,2144897464,-124.934189,-40.380142,60.258503,0.332985,0.370779,0.680732,-59.176369,30.674084,11.178080
466,2144914131,-125.451729,-40.561428,59.700752,-0.190431,0.356966,0.092999,-50.446541,25.593828,6.367909
467,2144930798,-126.114487,-40.864075,59.280251,-0.237388,0.119719,-0.393800,-53.893185,24.645159,-2.968472
468,2144947465,-127.004120,-41.205708,59.015388,0.161957,0.245626,-0.120943,-61.481308,20.355097,-8.743577
469,2144964132,-127.919250,-41.571602,58.562283,0.569155,0.661862,0.520419,-70.554535,28.055422,-4.439886
470,2144980799,-128.717865,-41.895203,57.919323,1.610998,1.329368,0.591507,-71.274292,33.140732,3.197654
471,2144997466,-129.399445,-42.246742,57.087517,1.749871,1.151957,0.444062,-72.009613,40.571266,7.549380
472,2145014133,-129.788925,-42.768024,56.083031,1.223414,1.174034,0.189566,-61.770088,52.680370,4.804869
473,2145030800,-130.306366,-43.369289,55.270084,0.102466,0.103901,-0.005780,-62.033154,48.998421,-4.099505
474,2145047467,-130.719742,-44.176407,54.403183,-0.543865,0.207519,0.389722,-58.468121,58.522297,-11.827071
475,2145064134,-131.301605,-45.152660,53.621006,-0.095518,0.554883,0.474957,-65.587212,62.132874,-21.709175
476,2145080801,-131.905121,-46.163208,53.054779,-0.119296,0.257451,0.848186,-58.194080,56.521187,-28.986794
477,2145097468,-132.004120,-47.230057,52.382919,-0.396294,0.563913,0.861782,-32.960213,61.857712,-28.534521
478,2145114135,-132.123413,-48.434795,51.660244,-0.038845,1.134935,-0.327187,-36.983418,68.539047,-33.578690
479,2145130802,-132.220367,-49.418129,50.859104,0.420632,0.070283,-0.297278,-39.742172,61.517315,-21.941940
480,2145147469,-132.146622,-50.312187,49.991688,-0.609433,0.019493,-0.172668,-33.053013,59.381371,-16.640640
481,2145164136,-132.049805,-51.191841,49.231491,-0.530681,0.453060,-0.118268,-27.201674,55.294495,-19.238354
482,2145180803,-131.785507,-52.050674,48.315548,-0.277560,0.451332,0.085443,-24.915165,58.317467,-14.973293
483,2145197470,-131.176178,-52.958370,47.249008,-0.197836,0.487379,0.331047,-11.902854,63.754913,-14.423874
484,2145214137,-130.324799,-53.882603,46.134441,-0.472463,0.443813,0.482938,-0.313914,64.889137,-15.419072
485,2145230804,-129.352692,-54.833782,44.938515,-0.203016,0.456289,0.110686,2.314691,67.167717,-16.460548
486,2145247471,-128.634018,-55.679066,44.054596,-0.318817,0.284792,-0.403142,1.850660,53.902306,-19.829056
487,2145264138,-128.206635,-56.435257,43.476807,-0.990831,0.071772,0.375873,-0.806307,41.859562,-22.952236
488,2145280805,-127.645256,-57.195038,42.889912,-0.606263,0.096938,0.588552,6.522359,41.721886,-23.548330
489,2145297472,-127.094208,-57.928207,42.312645,-0.301947,-0.364012,0.474043,6.143669,39.962162,-23.123577
490,2145314139,-126.438431,-58.604172,41.524204,-0.154165,-0.311717,0.409100,1.423020,42.706360,-17.035824
491,2145330806,-125.732994,-59.170258,40.623638,-0.736640,-0.083483,0.658782,-1.618835,41.070641,-10.443582
492,2145347473,-125.036842,-59.541370,39.730377,-0.881800,0.037847,0.556698,-2.025794,33.666756,-1.777823
493,2145364140,-124.411499,-59.799480,38.972916,-0.420650,-0.609681,-0.014722,0.609411,26.184111,0.898323
494,2145380807,-123.850357,-60.015541,38.385967,-0.692306,-0.678888,-0.387837,5.516248,20.391270,-0.272046
495,2145397474,-123.416878,-60.209663,37.998138,-1.087355,-0.499214,-0.268028,8.155806,14.610969,-2.724704
496,2145414141,-123.072685,-60.359142,37.729931,-1.367705,-0.470767,-0.014421,9.000672,10.091121,-2.581147
497,2145430808,-122.916153,-60.504288,37.665630,-1.125467,-0.640607,-0.118350,8.361596,4.848351,-5.724364
498,2145447475,-122.832649,-60.650890,37.635368,-0.699251,-0.343703,0.241573,5.756475,4.030921,-6.360915
499,2145464142,-122.708160,-60.724350,37.573032,-0.606714,0.136146,0.705536,6.537341,2.431305,-2.174365
500,2145480809,-122.714676,-60.775093,37.600510,-0.173777,-0.232817,0.308774,3.378219,-0.525496,-2.458806
501,2145497476,-122.706902,-60.828156,37.594280,-0.125388,-0.518801,0.177069,2.476780,0.380765,-2.042395
502,2145514143,-122.609612,-60.931381,37.553627,-0.524350,-0.854652,0.273645,6.037842,2.850073,-4.035410
503,2145530810,-122.512123,-60.997387,37.555534,-1.285371,-0.394175,0.002101,8.282668,0.594093,-2.827732
504,2145547477,-122.518486,-61.024014,37.635384,-0.875123,-0.082729,-0.183475,6.149284,-2.587793,-2.061759
505,2145564144,-122.663109,-61.016464,37.811794,-0.118137,-0.291961,-0.109191,2.922237,-6.055049,-1.847406
506,2145580811,-122.809265,-60.974350,38.040447,-0.390704,-0.293789,0.219668,5.571743,-8.449914,-0.939448
507,2145597478,-122.973640,-60.922268,38.332420,-0.503191,-0.377476,0.233271,7.797220,-10.329068,-1.464663
508,2145614145,-123.148148,-60.849617,38.658047,-0.490536,-0.502270,0.217137,8.942406,-11.834716,-1.000151
509,2145630812,-123.348366,-60.766834,39.024567,-0.414523,-0.616840,0.100975,9.527504,-13.180948,-1.195922
510,2145647479,-123.597054,-60.685513,39.420380,-0.213766,-0.484171,0.055433,8.143227,-13.864514,-1.805390
511,2145664146,-123.791664,-60.612370,39.785831,-0.196358,-0.470168,0.312673,9.783721,-12.863362,-1.782581
512,2145680813,-123.896187,-60.530716,40.096916,-0.010969,-0.564393,0.304444,12.332713,-11.831697,-0.508592
513,2145697480,-123.989494,-60.408188,40.395664,-0.176245,-0.117378,0.087850,12.341512,-12.918958,1.697567
514,2145714147,-124.107956,-60.249706,40.744015,-0.399616,-0.225590,0.039939,13.393085,-15.380177,2.614490
515,2145730814,-124.234802,-60.076187,41.076057,0.120757,-0.514449,0.094570,12.021420,-15.534956,3.576556
516,2145747481,-124.379807,-59.889313,41.402287,0.300151,-0.476524,0.017666,10.603946,-15.891945,4.272415
517,2145764148,-124.558708,-59.670799,41.763798,0.040183,-0.237105,0.183465,10.361091,-17.902782,5.159975
518,2145780815,-124.771629,-59.428608,42.108643,-0.131642,-0.302311,0.195391,7.412423,-18.372238,6.518500
519,2145797482,-124.957878,-59.200855,42.440556,-0.300015,-0.354421,0.309802,8.301198,-17.632732,5.933415
520,2145814149,-125.080681,-58.948959,42.674942,-0.137320,-0.188494,0.025744,7.047465,-16.073492,8.762468
521,2145830816,-125.301895,-58.674965,42.982243,0.218706,-0.152376,0.109138,4.853237,-18.760115,8.462623
522,2145847483,-125.512802,-58.443615,43.280025,0.188762,-0.534602,0.251798,4.940382,-17.119652,6.446551
523,2145864150,-125.736069,-58.235218,43.588840,-0.275806,-0.324539,0.257317,4.727616,-16.669264,5.032139
524,2145880817,-126.055183,-58.053413,43.979836,-0.094047,0.026068,0.142022,3.133955,-17.906078,2.108997
525,2145897484,-126.457977,-57.852932,44.460957,-0.142367,0.000682,0.182355,2.648287,-20.945829,1.172430
526,2145914151,-126.884125,-57.673515,44.951897,-0.453816,-0.035986,0.361317,1.701588,-20.512163,-0.216671
527,2145930818,-127.338196,-57.469151,45.455791,-0.376932,-0.009523,0.188643,0.628210,-21.807917,0.528589
528,2145947485,-127.793076,-57.255550,46.059757,0.013349,-0.233013,0.228927,5.576852,-24.780561,-1.227799
529,2145964152,-128.149811,-57.045033,46.691788,-0.322966,-0.676461,0.122949,12.807701,-25.469589,-2.167174
530,2145980819,-128.530289,-56.860851,47.388821,-0.119202,-0.334684,-0.056116,14.582941,-26.222010,-4.950170
531,2145997486,-128.962082,-56.643162,48.164181,-0.720925,0.073020,0.087914,15.350653,-29.544580,-5.246423
532,2146014153,-129.556641,-56.398251,49.121662,-0.493728,0.312949,0.463709,14.600769,-35.315067,-8.148377
533,2146030820,-130.152740,-56.091412,50.180389,-0.405061,0.233593,0.422467,19.398590,-40.366726,-7.961176
534,2146047487,-130.648224,-55.768692,51.270153,-0.176753,-0.170946,0.451060,26.791042,-41.925663,-8.468620
535,2146064154,-131.041382,-55.420681,52.353340,-0.082888,-0.169350,0.115347,32.391190,-42.919518,-7.695583
536,2146080821,-131.431580,-55.081676,53.547951,0.286691,-0.535434,-0.318408,37.835415,-45.608219,-11.106897
537,2146097488,-131.827301,-54.773666,54.855274,0.243849,-0.949860,-0.169742,42.809917,-47.443073,-15.601650
538,2146114155,-132.273743,-54.457905,56.162380,-0.232689,-0.102496,-0.076294,39.507240,-47.887787,-15.820448
539,2146130822,-132.757950,-54.095100,57.544151,-0.973411,0.251440,0.065977,40.612595,-51.866932,-16.140438
540,2146147489,-133.174637,-53.667992,58.810654,-0.814633,0.163653,0.238956,38.736813,-51.720585,-11.252355
541,2146164156,-133.366745,-53.148712,59.930191,-0.930488,0.257000,0.208735,44.759552,-51.988926,-4.233313
542,2146180823,-133.453796,-52.553677,60.985771,-0.775802,-0.029839,0.031926,47.609707,-53.798729,0.177326
543,2146197490,-133.430878,-51.912884,62.122688,-0.996215,-0.522727,0.095622,57.648129,-58.247314,-0.287868
544,2146214157,-133.388290,-51.297863,63.354527,-0.956446,-0.268997,0.162986,62.834572,-60.184765,-4.220036
545,2146230824,-133.270416,-50.687115,64.543442,-0.737615,-0.078347,0.285757,64.856674,-59.288891,-3.633466
546,2146247491,-133.103348,-50.059711,65.631142,-0.098270,0.430809,0.336170,62.640465,-57.591713,-0.518696
547,2146264158,-132.834396,-49.435886,66.666557,0.199360,0.617254,0.636278,65.899002,-56.366974,0.547838
548,2146280825,-132.499176,-48.788731,67.664444,0.226053,0.779513,0.147447,67.720032,-56.613159,2.512502
549,2146297492,-132.190048,-48.150787,68.681717,-0.294045,0.282386,-0.054623,66.587601,-57.176781,1.555866
550,2146314159,-131.739655,-47.583027,69.567841,-0.611807,0.252232,0.350527,68.794678,-50.787476,2.003445
551,2146330826,-131.158661,-47.040436,70.271080,-0.950546,0.400594,0.597459,68.218948,-44.483311,5.986873
552,2146347493,-130.485809,-46.505657,70.780762,-0.657013,0.574511,0.536551,64.995087,-38.313744,11.113622
553,2146364160,-129.641800,-45.915646,71.132584,-0.250197,0.253857,-0.299091,68.217995,-35.455547,18.217083
554,2146380827,-128.680405,-45.306149,71.331474,-0.396043,0.230615,-0.106100,68.551079,-31.059343,23.609772
555,2146397494,-127.606743,-44.598644,71.412445,-0.704070,0.559143,0.492841,70.187454,-30.414280,31.791477
556,2146414161,-126.429237,-43.797955,71.498016,-0.987904,0.430318,0.861403,76.565041,-33.359619,36.665043
557,2146430828,-125.343178,-43.059498,71.755463,-0.807537,-0.089014,0.806736,78.116783,-36.557800,29.846264
558,2146447495,-124.367432,-42.338215,72.194687,-1.016233,-0.363019,0.319162,78.748276,-42.125980,24.966677
559,2146464162,-123.536087,-41.745815,72.548615,-1.008890,-0.135569,-0.093896,66.436417,-34.431503,21.201090
560,2146480829,-122.903053,-41.087967,73.032715,-0.076538,0.535604,0.022887,59.533596,-41.344532,21.608057
561,2146497496,-122.125671,-40.534954,73.241386,1.218607,0.978370,1.077501,57.160168,-27.326866,23.410156
562,2146514163,-121.100632,-40.084671,73.242577,0.893032,0.200879,0.479013,63.881653,-15.710485,23.508015
563,2146530830,-120.133987,-39.768772,73.288269,-0.649650,0.770386,-0.470907,62.086823,-12.957801,15.774850
564,2146547497,-119.235252,-39.500851,73.296288,0.488473,0.283933,-0.359450,56.557152,-9.784108,14.315465
565,2146564164,-118.341934,-39.217224,73.242157,0.188420,-0.346198,0.083072,53.871426,-7.494206,16.659885
566,2146580831,-117.509621,-38.991528,73.150032,0.149489,0.274910,0.040504,48.780163,-4.053734,14.511398
567,2146597498,-116.741882,-38.771076,73.049194,0.436181,0.958076,0.113408,44.596863,-3.341459,14.458500
568,2146614165,-115.991638,-38.581242,72.885063,-0.132731,0.489065,-0.064154,41.188751,0.324509,14.160171
569,2146630832,-115.287170,-38.547455,72.569489,0.668936,0.832065,-0.089565,32.792728,10.964402,8.774955
570,2146647499,-114.742424,-38.544689,72.226768,1.011943,0.410638,-0.092755,22.200050,13.000712,7.495518
571,2146664166,-114.163734,-38.515545,71.805519,0.293515,-0.084263,-0.111612,21.308189,15.775513,10.324352
572,2146680833,-113.418602,-38.488819,71.238617,0.013280,-1.195967,0.422644,25.858412,22.209894,12.756113
573,2146697500,-112.555359,-38.535202,70.664627,0.432401,-1.126981,0.522956,32.678783,24.392897,8.509660
574,2146714167,-111.703720,-38.676399,70.305016,0.016221,-0.567745,0.729400,39.965584,17.309475,-0.948662
575,2146730834,-111.000641,-38.893288,70.135185,-0.640892,-0.541695,0.841169,38.131874,10.639046,-8.679887
576,2146747501,-110.421616,-39.161003,69.999741,-0.558699,-0.695291,0.669295,31.956129,10.086192,-12.244795
577,2146764168,-109.958168,-39.415234,69.861267,0.032647,-0.180124,0.262584,24.880947,9.801298,-11.552501
578,2146780835,-109.623833,-39.648331,69.686386,0.719118,0.134613,-0.050455,15.713448,10.852469,-9.873340
579,2146797502,-109.401154,-39.850670,69.477806,0.875261,0.078946,-0.255956,7.696168,11.624545,-7.684304
580,2146814169,-109.258141,-40.007698,69.248352,0.804755,-0.270490,-0.152089,2.079874,11.579758,-4.846835
581,2146830836,-109.166359,-40.126190,69.025772,0.369391,-0.290592,0.208418,-0.750747,10.492343,-2.802696
582,2146847503,-109.143906,-40.205269,68.823006,0.105729,-0.169225,0.530920,-4.164768,8.841053,-0.881321
583,2146864170,-109.213852,-40.304092,68.672516,0.319218,-0.379791,0.559050,-7.695929,6.958891,-2.786855
584,2146880837,-109.299469,-40.455833,68.600594,-0.036094,-0.489156,0.296892,-5.592343,4.611920,-6.961855
585,2146897504,-109.464417,-40.630295,68.600090,-0.038045,-0.215166,0.076842,-7.574449,2.001025,-9.317969
586,2146914171,-109.658295,-40.836136,68.602776,0.156757,-0.419479,0.148610,-9.188435,2.524703,-11.130301
587,2146930838,-109.838081,-41.039242,68.617104,0.135433,-0.388543,0.113783,-7.883197,2.010592,-11.139791
588,2146947505,-110.070053,-41.196323,68.687050,-0.054307,-0.714522,0.076365,-8.816690,-1.246635,-9.388328
589,2146964172,-110.302307,-41.285526,68.773888,-0.321192,-0.598845,0.114251,-8.155663,-3.322609,-5.829018
590,2146980839,-110.669930,-41.347061,68.889641,-0.200868,-0.405334,0.017466,-15.124735,-5.091066,-4.739519
591,2146997506,-111.045448,-41.456696,68.953316,0.258538,-0.044257,0.189193,-17.658735,-1.826674,-6.622479
592,2147014173,-111.364586,-41.561634,68.988548,0.383055,-0.237762,0.348571,-15.400264,-0.686844,-5.896766
593,2147030840,-111.675491,-41.648872,69.009544,0.194208,-0.563287,0.020535,-15.470840,-0.447698,-4.670352
594,2147047507,-111.995583,-41.738289,69.036903,-0.062822,-0.544955,0.071315,-15.766413,-0.631200,-4.890097
595,2147064174,-112.313904,-41.806831,69.068039,-0.253012,-0.272787,0.205688,-15.505071,-1.227362,-3.789953
596,2147080841,-112.664665,-41.822350,69.102188,-0.044750,-0.020474,0.068546,-17.332481,-2.544329,-0.900047
597,2147097508,-113.019913,-41.872406,69.025589,0.395544,-0.489743,0.002536,-22.029396,2.829536,-0.895857
598,2147114175,-113.373894,-41.966171,68.919357,0.247109,-0.620854,0.101054,-23.147625,5.086980,-2.759492
599,2147130842,-113.695732,-41.989510,68.837143,-0.373692,-0.511362,0.306081,-20.258547,2.435457,0.722170
600,2147147509,-114.059319,-42.012363,68.773903,0.224851,-0.054489,0.121579,-22.004675,1.645638,0.430979
601,2147164176,-114.487206,-42.021797,68.720444,0.316845,0.002344,-0.013405,-25.468916,0.918173,1.005179
602,2147180843,-114.897827,-42.029572,68.667496,0.226633,-0.180998,-0.155957,-24.410055,0.857176,1.104838
603,2147197510,-115.325287,-42.035000,68.602074,0.116270,-0.287763,-0.069883,-25.926975,1.294911,1.486123
604,2147214177,-115.719398,-42.039761,68.470917,0.377129,-0.124618,0.284609,-26.562767,3.910102,2.802734
605,2147230844,-116.077713,-42.041912,68.235771,0.579681,0.260937,0.283683,-28.590347,7.997329,5.003489
606,2147247511,-116.351425,-42.031410,67.911613,0.422524,0.023223,0.351727,-27.091461,11.202871,7.491758
607,2147264178,-116.502609,-41.993839,67.559502,-0.228424,-0.161589,0.202958,-20.857969,11.572850,9.553949
608,2147280845,-116.593117,-41.941967,67.210899,-0.110785,-0.427340,-0.093163,-17.064081,11.042571,10.281744
609,2147297512,-116.759941,-41.847485,66.943184,0.032890,0.158152,-0.524411,-18.382624,6.661944,10.977985
610,2147314179,-117.103897,-41.722633,66.822388,0.032594,-0.054106,-0.197433,-23.108829,-0.056463,9.669783
611,2147330846,-117.340286,-41.581139,66.661865,-0.248453,-0.459739,0.123805,-18.231276,1.034031,11.385023
612,2147347513,-117.565559,-41.423336,66.534325,-0.140858,-0.358887,0.076547,-16.230701,-0.756779,11.589065
613,2147364180,-118.027870,-41.288521,66.425323,0.770412,0.644886,-0.097756,-29.703789,-0.908575,9.987546
614,2147380847,-118.736076,-41.166775,66.213242,1.000883,0.790330,0.105878,-48.525196,3.471031,11.520546
615,2147397514,-119.474327,-41.132111,65.836037,0.801917,0.766287,0.111292,-56.830109,12.398372,10.654356
616,2147414181,-120.198288,-41.175701,65.278557,0.576974,0.267355,0.102103,-63.096577,21.671539,10.813246
617,2147430848,-120.865952,-41.257214,64.608307,0.160186,-0.226308,-0.040251,-64.205162,27.065807,11.709187
618,2147447515,-121.666855,-41.315056,63.900032,0.198852,-0.470823,-0.311674,-73.742004,27.619610,14.157655
619,2147464182,-122.636528,-41.293591,63.232418,0.233696,-1.011680,-0.125986,-82.264893,23.318306,17.656441
620,2147480849,-123.663734,-41.226318,62.607979,0.082802,-0.758031,-0.121750,-83.981483,19.898920,19.333324
621,2147497516,-124.715652,-41.201626,62.078510,-0.367358,-0.380257,0.259344,-81.689941,17.465914,15.205823
622,2147514183,-125.800964,-41.265312,61.685459,-0.509387,-0.181918,0.320325,-78.302444,15.214293,7.664639
623,2147530850,-126.825150,-41.436333,61.350597,-0.280793,0.525935,0.032293,-72.361923,16.760733,1.210345
624,2147547517,-127.802132,-41.669537,61.039413,-0.217472,1.206620,0.186751,-68.645386,18.121134,-2.110767
625,2147564184,-128.763153,-41.921207,60.746372,-0.200807,0.919819,0.781611,-67.022964,18.173910,-3.185647
626,2147580851,-129.502701,-42.231403,60.347332,-0.050644,0.227330,1.241917,-58.059574,24.061001,-2.675232
627,2147597518,-130.119461,-42.570496,59.857735,0.439352,-0.289182,0.901668,-54.461189,28.213715,-1.193862
628,2147614185,-130.741837,-42.887108,59.299000,0.587896,-0.431476,0.566187,-57.733479,29.594585,2.058542
629,2147630852,-131.395218,-43.233288,58.758499,0.464289,0.220092,0.623888,-58.985043,30.038799,0.453640
630,2147647519,-131.889481,-43.604706,58.244793,0.964169,0.870598,0.768476,-48.482681,30.070198,-1.225236
631,2147664186,-132.127258,-44.090069,57.538708,0.821048,1.215328,0.604136,-41.262821,40.722115,-0.637751
632,2147680853,-132.262451,-44.673462,56.756996,0.338108,0.560997,0.220626,-38.567017,46.874100,-2.860425
633,2147697520,-132.389984,-45.400654,55.877037,0.104549,0.207567,-0.093404,-42.656296,55.487812,-6.577532
634,2147714187,-132.565659,-46.189732,55.003906,1.119132,0.249737,-0.157574,-45.741913,57.435532,-9.694467
635,2147730854,-132.663315,-47.014557,54.157856,1.065577,0.243847,0.631869,-40.394989,57.700119,-12.245217
636,2147747521,-132.477585,-47.998394,53.192574,0.690808,0.083719,0.430570,-29.210840,67.267433,-16.441759
637,2147764188,-132.134888,-49.066891,52.125599,-0.171153,-0.341718,0.007648,-25.060406,73.028839,-18.313782
638,2147780855,-131.884720,-49.987682,51.042347,-0.398675,0.211087,0.461548,-32.079842,66.845993,-12.253321
639,2147797522,-131.889648,-50.726109,50.143894,-0.806966,0.149800,0.552414,-39.456188,53.712536,-9.456039
640,2147814189,-132.087585,-51.327068,49.197506,0.231535,0.492324,-0.213231,-53.668518,49.193134,-2.350252
641,2147830856,-132.013397,-51.972305,48.035889,0.113884,0.862291,-0.133222,-47.855125,56.566761,0.776906
642,2147847523,-131.619598,-52.778206,46.900974,-0.359678,0.466177,0.146334,-27.960756,61.748264,-7.759137
643,2147864190,-131.194702,-53.714802,45.857021,-0.670448,-0.089663,0.101843,-22.344528,63.801235,-16.799002
644,2147880857,-131.000259,-54.627750,45.100914,-1.078929,-0.714575,-0.291286,-22.769026,54.539627,-23.268482
645,2147897524,-130.812012,-55.436787,44.294495,-1.486630,-0.300190,-0.011339,-26.003603,51.270912,-17.976376
646,2147914191,-130.611130,-56.098209,43.617706,-0.574073,0.220457,0.112782,-19.165190,41.735054,-14.635236
647,2147930858,-130.433380,-56.668880,43.068638,-0.450352,0.207705,-0.007209,-14.417456,34.638271,-13.630551
648,2147947525,-130.162231,-57.181351,42.588764,-0.500536,0.563294,0.505399,-5.505676,30.397108,-12.746080
649,2147964192,-129.542252,-57.660000,41.932137,-0.766998,0.048847,0.975306,6.350139,33.220997,-7.910003
650,2147980859,-128.758820,-58.051296,41.206093,-1.044788,-0.529676,0.678549,12.472095,31.324268,-3.031454
651,2147997526,-128.064774,-58.290379,40.516319,-1.014017,-0.551288,0.245925,8.832899,24.547045,2.858275
652,2148014193,-127.511871,-58.406097,39.996891,-0.738082,-0.011245,-0.246058,9.003124,15.709471,5.068804
653,2148030860,-127.080727,-58.491711,39.637283,-0.507888,-0.195156,-0.451686,9.840567,10.629950,3.289512
654,2148047527,-126.622215,-58.590717,39.289589,-0.247697,-0.474124,-0.099095,12.074894,10.807373,2.308583
655,2148064194,-126.131889,-58.694801,39.025810,-0.674514,-0.938721,0.305775,18.265163,8.870694,0.387860
656,2148080861,-125.684631,-58.769489,38.764786,-0.930140,-0.367055,0.092579,15.813254,7.746897,1.669700
657,2148097528,-125.433609,-58.824184,38.672939,-0.730860,-0.489311,0.201077,12.714335,2.767844,-0.482351
658,2148114195,-125.238678,-58.858658,38.596943,-0.349820,-0.413624,0.365001,10.155138,1.658672,0.204460
659,2148130862,-125.040192,-58.865597,38.453373,-0.264513,-0.057300,0.316669,6.906384,2.419703,2.749185
660,2148147529,-124.846352,-58.868267,38.305855,-0.135602,-0.353787,0.176699,6.425350,2.380259,3.015851
661,2148164196,-124.670143,-58.896107,38.135258,-0.054699,-0.613465,0.128061,4.177271,3.837890,2.170375
662,2148180863,-124.559990,-58.986366,37.980190,-0.110363,-0.854077,0.272649,1.009902,5.567003,-1.203694
663,2148197530,-124.467819,-59.089695,37.811234,-0.381115,-0.591542,0.109471,-0.789076,6.350778,-1.626688
664,2148214197,-124.438957,-59.134506,37.676991,-0.322654,-0.150038,-0.025603,-2.806691,3.471782,0.649442
665,2148230864,-124.371910,-59.134598,37.573009,-0.641960,-0.071310,0.197783,1.042533,1.185362,2.328611
666,2148247531,-124.306862,-59.092407,37.523819,-0.599510,-0.287966,0.287354,3.747645,-1.635935,3.470694
667,2148264198,-124.313431,-59.034679,37.600876,-0.519330,-0.323281,0.316448,5.948109,-5.370280,2.042696
668,2148280865,-124.346298,-58.992809,37.732250,-0.467436,-0.338291,0.263505,7.160320,-6.225604,0.308627
669,2148297532,-124.359375,-58.969852,37.875549,-0.722739,-0.336846,0.214321,8.960511,-5.892511,-0.842799
670,2148314199,-124.350525,-58.953918,38.063965,-0.777845,0.001718,0.055620,12.595933,-6.803174,-1.978698
671,2148330866,-124.365082,-58.919987,38.353893,-0.276582,-0.497877,-0.058064,16.410006,-10.013975,-2.866365
672,2148347533,-124.398048,-58.861286,38.690887,-0.167655,-0.291110,0.142855,17.717916,-12.067698,-2.475843
673,2148364200,-124.467743,-58.787636,38.989357,0.022583,-0.141950,0.337908,13.521145,-11.601670,-1.079333
674,2148380867,-124.617584,-58.721241,39.296143,0.125352,-0.277272,0.277919,9.129135,-11.577795,-1.615382
675,2148397534,-124.831650,-58.644878,39.655258,-0.169111,-0.697482,0.239375,7.943523,-13.269656,-2.095645
676,2148414201,-124.988831,-58.553703,39.969887,-0.402465,-0.446250,0.132332,9.067077,-12.647690,-0.624605
677,2148430868,-125.167358,-58.429893,40.299149,-0.425234,0.001311,0.062854,8.515584,-14.171380,0.663504
678,2148447535,-125.436111,-58.303425,40.679226,-0.078525,-0.083228,0.015751,5.678923,-15.600197,-0.204466
682,2148514203,-126.986061,-57.791344,42.567585,-0.474574,-0.351580,0.032056,5.952137,-18.860603,-1.908110
683,2148530870,-127.302147,-57.649181,43.038887,-0.654996,-0.377821,0.069951,7.324019,-18.638069,-1.803444
689,2148630872,-129.574936,-56.742931,46.574089,-0.581578,-0.293684,0.195499,13.153168,-26.430288,-6.587031
690,2148647539,-129.975540,-56.562996,47.325680,-0.646119,-0.282020,0.026125,16.020910,-27.408329,-7.052329
691,2148664206,-130.373459,-56.380184,48.082809,-0.199225,-0.260619,-0.135870,16.383286,-27.694069,-7.297534
692,2148680873,-130.852051,-56.199059,48.914814,0.137441,-0.053079,-0.019673,15.199145,-29.551764,-9.276409
693,2148697540,-131.385544,-56.010883,49.840279,0.071356,0.172818,0.121792,16.471193,-32.201065,-11.351439
694,2148714207,-131.894943,-55.821144,50.818691,-0.246612,0.112997,0.311093,20.442110,-33.600349,-12.843411
695,2148730874,-132.335571,-55.643349,51.780590,-0.367824,-0.059624,0.322557,23.644224,-32.705021,-13.372116
696,2148747541,-132.710968,-55.506439,52.722736,-0.329172,-0.255757,0.015001,26.488131,-30.555477,-15.039742
697,2148764208,-133.079559,-55.406002,53.714352,0.071298,-0.100364,0.139169,29.277203,-30.263700,-18.040577
698,2148780875,-133.488770,-55.319603,54.714828,0.554354,0.075370,0.343687,27.223589,-29.840858,-19.111843
699,2148797542,-133.814285,-55.188522,55.644180,0.415711,0.361696,0.040055,28.669626,-29.870777,-15.736821
700,2148814209,-134.231873,-54.943985,56.670116,0.147638,0.476549,0.019233,27.794626,-36.991127,-13.439516
701,2148830876,-134.756134,-54.623783,57.761272,-0.039769,0.976263,-0.243918,24.410696,-41.840450,-12.249803
702,2148847543,-135.285492,-54.144276,58.935963,-0.583552,0.633880,-0.362245,27.914322,-50.813984,-8.192232
703,2148864210,-135.732788,-53.502632,60.082443,-0.947601,-0.260747,-0.304638,31.063564,-57.370121,-1.481012
704,2148880877,-136.031342,-52.827011,61.151573,-1.046447,-0.844837,0.386970,35.799747,-57.325268,1.112384
705,2148897544,-136.166870,-52.246887,62.223515,-0.952612,-0.593241,0.439697,45.291496,-53.652214,-3.549829
706,2148914211,-136.112930,-51.758137,63.254650,-0.777248,-0.433032,0.288786,54.366909,-48.991131,-6.644278
707,2148930878,-135.982956,-51.320580,64.225174,-0.886501,-0.149025,0.378363,55.769600,-45.489044,-7.355359
708,2148947545,-135.744431,-50.887348,65.103523,-0.928874,-0.017092,0.922267,57.701351,-43.150669,-5.154407
709,2148964212,-135.459061,-50.419441,65.968742,-0.787608,0.293843,0.641861,59.640339,-44.539845,-3.379700
710,2148980879,-135.238647,-49.911350,66.859276,-0.270172,-0.237904,0.048038,56.621819,-47.197235,-2.432306
711,2148997546,-134.943008,-49.387184,67.702332,-0.040861,-0.256706,-0.023861,58.659672,-46.849705,-0.501878
712,2149014213,-134.633347,-48.841244,68.492882,-0.357764,0.347825,0.233252,56.808235,-46.567924,1.865235
713,2149030880,-134.301941,-48.282894,69.313690,-1.016352,0.057221,0.261979,59.172661,-48.185619,1.567088
714,2149047547,-133.876389,-47.760742,70.029785,-0.932136,-0.049743,0.419153,59.842812,-43.897430,2.996827
715,2149064214,-133.287598,-47.218597,70.648613,-0.678140,-0.231162,0.378176,65.062134,-42.059715,6.753886
716,2149080881,-132.608414,-46.585304,71.231308,-0.676794,-0.086357,0.198374,68.642593,-44.837379,12.023641
717,2149097548,-131.967377,-45.864517,71.839447,-0.473875,0.065188,0.579529,67.172073,-49.235645,15.490729
718,2149114215,-131.304657,-45.155720,72.405037,-0.032453,0.360437,0.888330,66.337761,-47.492905,16.468309
719,2149130882,-130.516953,-44.489532,72.893387,0.044516,0.377609,0.522175,70.276825,-43.350750,17.081392
720,2149147549,-129.563858,-43.731625,73.123413,0.119333,0.178995,0.981768,69.149452,-38.312447,28.927097
721,2149164216,-128.424667,-42.881222,73.122139,0.102666,0.165367,0.921137,70.653870,-33.534367,40.177258
722,2149180883,-127.139153,-42.063931,72.999756,-0.074484,0.325031,0.714066,74.531090,-27.232704,42.568340
723,2149197550,-125.790764,-41.456051,72.913338,-0.660800,-0.055706,0.537390,79.803169,-20.040901,32.122337
724,2149214217,-124.387749,-41.009205,72.822914,-1.079048,-0.384576,0.502532,82.960541,-13.555695,24.773203
725,2149230884,-123.245903,-40.707745,72.888443,-0.071197,-0.020295,0.209224,73.439453,-14.016311,13.859063
726,2149247551,-122.259277,-40.436672,73.011696,0.782457,0.635884,0.483722,66.361595,-15.004145,11.126514
727,2149264218,-121.259438,-40.122482,73.146507,0.348167,0.239452,0.548135,67.574501,-16.651854,13.270757
728,2149280885,-120.272614,-39.925175,73.234810,-0.162552,0.003907,-0.222196,64.967262,-11.023223,8.591010
729,2149297552,-119.353722,-39.764008,73.261269,0.074649,0.521260,-0.884248,58.504402,-7.348478,8.277711
730,2149314219,-118.549080,-39.540588,73.311447,0.444292,0.358953,-0.696629,52.550552,-10.003233,11.104009
731,2149330886,-117.854408,-39.357143,73.281662,0.465775,0.630028,-0.066467,42.895348,-5.475420,10.849713
732,2149347553,-117.246635,-39.221165,73.138977,0.751371,0.726539,0.761589,33.396931,0.614074,10.797956
733,2149364220,-116.553177,-39.082577,72.822838,0.406170,-0.821630,1.045653,31.981272,7.866407,14.573674
734,2149380887,-115.848564,-39.010300,72.395912,0.308605,-0.602504,0.411262,28.493368,14.448753,13.181021
735,2149397554,-115.248749,-38.908829,72.072937,-0.197716,-0.395081,0.061963,26.159355,9.479771,12.497227
736,2149414221,-114.744949,-38.840916,71.899780,0.005311,-0.140783,-0.174316,26.061928,4.120178,7.614719
737,2149430888,-114.231377,-38.790085,71.894051,0.071218,0.022111,-0.186188,32.956673,-2.509388,3.389451
738,2149447555,-113.808228,-38.776634,72.047287,0.143664,-0.028596,-0.470165,33.505360,-8.361838,-1.675948
739,2149464222,-113.499153,-38.801773,72.230980,-0.154167,-0.727220,-0.138762,27.804390,-8.750911,-4.324192
740,2149480889,-113.266289,-38.840019,72.393364,-0.190959,-0.818301,0.077577,22.434916,-7.544503,-4.614854
741,2149497556,-113.161362,-38.895531,72.564499,0.683367,-0.620280,0.292387,15.097389,-7.524788,-5.708385
742,2149514223,-113.133316,-38.977486,72.755569,0.945570,-0.659748,0.295847,11.248818,-7.758067,-7.522430
743,2149530890,-113.140320,-39.056530,72.967499,0.728967,0.022824,0.237812,9.945004,-8.705700,-7.735798
744,2149547557,-113.243401,-39.099602,73.187332,0.456537,0.229695,0.314147,4.492105,-9.878849,-5.899773
745,2149564224,-113.407707,-39.063847,73.408058,0.148037,-0.601715,0.221514,0.850976,-11.769925,-1.588142
752,2149680893,-114.708633,-39.568661,73.904846,0.305485,-0.248366,0.179059,-15.513296,1.537705,-7.479493
753,2149697560,-114.984566,-39.688469,73.921738,0.111962,-0.870861,0.096565,-13.541598,0.834648,-6.339750
754,2149714227,-115.234116,-39.775810,73.867332,0.115855,-0.742180,-0.244269,-14.687985,3.023896,-3.167999
755,2149730894,-115.449760,-39.834236,73.753830,0.261263,-0.397106,-0.223492,-14.928350,4.754508,-0.417359
756,2149747561,-115.813866,-39.905987,73.676437,0.204458,0.252484,-0.101092,-22.448124,3.606460,-1.828225
757,2149764228,-116.206657,-39.975204,73.614868,-0.241581,0.279304,0.219633,-23.567011,2.892352,-1.977548
758,2149780895,-116.629036,-40.065971,73.503738,-0.118792,0.142822,0.223086,-27.260296,5.527997,-2.092307
759,2149797562,-117.015320,-40.174416,73.297241,0.133428,-0.321578,0.091810,-28.789534,9.918377,-1.019568