sep=,
DeviceTag:,Xsens DOT 1
FirmwareVersion:,2.2.1
AppVersion:,2023.6.0
SyncStatus:,Synced
OutputRate:,60Hz
FilterProfile:,General
Measurement Mode:,Custom modes - custom mode1
StartTime: ,2023-12-12_15:43:44_533 CET
© Movella Technologies B. V. 2005-2023

PacketCounter,SampleTimeFine,Euler_X,Euler_Y,Euler_Z,FreeAcc_X,FreeAcc_Y,FreeAcc_Z,Gyr_X,Gyr_Y,Gyr_Z
1,2079879497,104.873413,0.128584,-29.573715,-0.015884,0.036525,0.031707,0.258695,-2.565483,0.494165
2,2079896164,104.869797,0.109457,-29.620171,-0.070597,0.004591,0.025274,-0.290166,-2.454913,0.725025
3,2079912831,104.843895,0.088507,-29.667204,-0.013016,-0.021888,0.021492,-1.628007,-2.461073,0.839463
4,2079929498,104.818909,0.066094,-29.714256,0.014333,-0.005532,-0.005933,-1.573499,-2.441461,0.923647
5,2079946165,104.832848,0.042763,-29.760555,-0.019401,-0.016303,-0.017292,0.760166,-2.383185,0.965118
6,2079962832,104.874939,0.020089,-29.805050,-0.117778,-0.052566,0.001255,2.448222,-2.288495,0.900446
7,2079979499,104.915474,-0.000879,-29.850821,0.012492,0.009725,0.004735,2.353711,-2.385695,0.822661
8,2079996166,104.936340,-0.019753,-29.898426,-0.023299,0.001502,0.018867,1.173068,-2.524362,0.731147
9,2080012833,104.953590,-0.037087,-29.949154,-0.018387,-0.004003,-0.021067,0.954976,-2.728431,0.691127
10,2080029500,105.003418,-0.053472,-30.000072,-0.007122,0.027353,-0.047952,2.907779,-2.752764,0.640337
11,2080046167,105.077477,-0.065697,-30.052252,-0.019323,-0.005223,-0.006579,4.361453,-2.889100,0.422257
12,2080062834,105.140060,-0.075996,-30.104393,-0.050307,0.002525,0.048796,3.673752,-2.915661,0.313608
13,2080079501,105.168358,-0.082890,-30.156096,-0.062754,0.007580,0.048138,1.614580,-2.941567,0.111665
14,2080096168,105.161980,-0.087493,-30.209063,-0.023931,-0.039010,0.026771,-0.465268,-3.051740,-0.000141
15,2080112835,105.141144,-0.089198,-30.259155,0.015554,-0.023605,-0.008731,-1.333935,-2.929580,-0.214212
16,2080129502,105.132607,-0.089839,-30.310047,-0.033134,0.014315,-0.019184,-0.594599,-2.994061,-0.263926
17,2080146169,105.153152,-0.088235,-30.359703,-0.084005,-0.021541,-0.013967,1.149620,-2.957217,-0.412774
18,2080162836,105.181473,-0.083565,-30.409529,-0.112758,-0.047621,0.011800,1.615745,-3.013962,-0.586646
19,2080179503,105.196480,-0.078310,-30.461060,-0.079549,-0.040543,0.021315,0.817986,-3.122598,-0.591858
20,2080196170,105.199707,-0.074139,-30.514889,-0.054310,0.010488,0.002779,0.111261,-3.237648,-0.492912
21,2080212837,105.194534,-0.069458,-30.569332,-0.071399,0.039448,-0.002004,-0.392591,-3.281614,-0.512408
22,2080229504,105.173347,-0.067276,-30.627535,-0.071632,0.037087,0.027225,-1.352184,-3.460814,-0.308992
23,2080246171,105.132599,-0.065988,-30.685982,-0.088797,-0.034015,0.016844,-2.526795,-3.461198,-0.255090
24,2080262838,105.075943,-0.064887,-30.746397,-0.088540,-0.015131,0.022492,-3.480459,-3.572767,-0.216479
25,2080279505,105.019638,-0.066061,-30.806763,-0.043373,0.015254,-0.021473,-3.460737,-3.535180,-0.088722
26,2080296172,104.976173,-0.065709,-30.866041,-0.022202,0.038083,-0.016586,-2.690076,-3.497043,-0.196629
27,2080312839,104.954086,-0.065632,-30.925974,-0.027824,0.040843,-0.003629,-1.406291,-3.530647,-0.173001
28,2080329506,104.949097,-0.063300,-30.985987,-0.035892,-0.029208,0.023623,-0.380694,-3.570910,-0.302845
29,2080346173,104.942543,-0.057202,-31.049078,-0.068545,-0.059753,0.033695,-0.474667,-3.807534,-0.473899
30,2080362840,104.933327,-0.045840,-31.115814,-0.014055,-0.032866,0.005726,-0.634900,-4.099863,-0.723085
31,2080379507,104.924934,-0.029609,-31.185528,0.033976,-0.016704,0.016114,-0.582036,-4.348485,-0.960015
32,2080396174,104.905388,-0.010194,-31.256634,0.011750,0.022747,0.041770,-1.252372,-4.478483,-1.124129
33,2080412841,104.886810,0.016498,-31.328726,0.001073,-0.035808,0.044741,-1.191080,-4.648052,-1.531985
34,2080429508,104.873482,0.048766,-31.400377,0.025635,-0.055237,0.057001,-0.875493,-4.708230,-1.864182
35,2080446175,104.862434,0.088390,-31.470346,0.053446,-0.016121,0.014341,-0.734624,-4.723200,-2.317796
36,2080462842,104.856033,0.135176,-31.541082,0.065381,0.018380,0.015486,-0.453087,-4.878466,-2.721826
37,2080479509,104.845345,0.184211,-31.608614,0.056318,0.018655,0.029252,-0.707756,-4.726402,-2.902495
38,2080496176,104.820152,0.236008,-31.677622,0.036466,0.028895,0.058298,-1.573337,-4.853108,-3.041867
39,2080512843,104.793289,0.290996,-31.746822,0.002892,0.010313,0.045717,-1.669961,-4.912874,-3.226304
40,2080529510,104.767166,0.346540,-31.819023,-0.004034,0.019301,0.064609,-1.621566,-5.094136,-3.215073
41,2080546177,104.738388,0.402885,-31.893787,-0.023171,0.007397,0.020550,-1.774563,-5.254523,-3.224460
42,2080562844,104.711411,0.456637,-31.972321,0.018439,-0.004125,-0.004217,-1.661009,-5.433056,-3.018905
43,2080579511,104.713181,0.507901,-32.052525,-0.017926,0.017779,0.002684,0.069238,-5.491184,-2.850552
44,2080596178,104.741425,0.558693,-32.133339,-0.014439,-0.001680,0.028345,1.661080,-5.519755,-2.812045
45,2080612845,104.773705,0.605299,-32.216209,-0.004910,-0.010437,0.062830,1.909267,-5.575668,-2.535030
46,2080629512,104.795387,0.651259,-32.298843,0.023815,0.014282,0.052915,1.276940,-5.552526,-2.498647
47,2080646179,104.787758,0.698329,-32.383080,0.031195,0.012810,0.074030,-0.476115,-5.662212,-2.537834
48,2080662846,104.752632,0.745331,-32.466942,0.051050,0.025998,0.059950,-2.121910,-5.640148,-2.541574
49,2080679513,104.727066,0.792085,-32.551502,0.047870,0.012089,0.033538,-1.545022,-5.674956,-2.519829
50,2080696180,104.726372,0.836552,-32.636940,0.072802,0.018679,0.029768,-0.047281,-5.690310,-2.375424
51,2080712847,104.732956,0.882639,-32.723068,0.027610,-0.012194,0.044195,0.394058,-5.755917,-2.458333
52,2080729514,104.730461,0.930219,-32.809792,0.067411,0.026524,0.054189,-0.145715,-5.812365,-2.536018
53,2080746181,104.714127,0.977875,-32.897591,0.100496,0.042311,0.037621,-0.971631,-5.876808,-2.524874
54,2080762848,104.701775,1.024539,-32.985821,0.049528,0.067397,0.048240,-0.727119,-5.885838,-2.462572
55,2080779515,104.703224,1.070315,-33.074562,0.050688,0.047769,0.040960,0.106248,-5.901769,-2.404098
56,2080796182,104.712204,1.112071,-33.163277,-0.002208,0.011832,0.083589,0.561117,-5.839184,-2.170574
57,2080812849,104.711441,1.152240,-33.253239,0.021657,0.011796,0.067718,-0.019043,-5.886568,-2.059210
58,2080829516,104.699112,1.189672,-33.344273,0.034648,0.054448,0.032023,-0.707423,-5.907352,-1.884813
59,2080846183,104.698708,1.222384,-33.434723,0.069350,0.066868,0.030137,0.011596,-5.801111,-1.620413
60,2080862850,104.725609,1.250668,-33.522598,0.035789,0.060564,0.049664,1.648197,-5.584453,-1.401540
61,2080879517,104.757088,1.275956,-33.610130,0.024624,0.034375,0.103318,1.923815,-5.518552,-1.229960
62,2080896184,104.770920,1.298192,-33.696781,0.027039,0.055194,0.096049,0.868021,-5.420109,-1.064438
63,2080912851,104.761154,1.316968,-33.782394,0.048379,0.066049,0.088890,-0.549725,-5.308310,-0.879169
64,2080929518,104.747513,1.332600,-33.866013,0.077228,0.049527,0.048885,-0.782430,-5.144888,-0.728067
65,2080946185,104.751892,1.345299,-33.946556,0.093337,0.071817,0.067846,0.295078,-4.919252,-0.606163
66,2080962852,104.782455,1.355883,-34.023701,0.044712,0.064655,0.054814,1.861563,-4.690697,-0.533717
67,2080979519,104.827248,1.361740,-34.098877,0.014688,0.073915,0.078293,2.713019,-4.502867,-0.286939
68,2080996186,104.851814,1.365496,-34.172855,-0.011982,0.053914,0.089577,1.497415,-4.400582,-0.180698
69,2081012853,104.845261,1.365527,-34.247662,0.006012,0.033047,0.072302,-0.367315,-4.392071,0.049180
70,2081029520,104.840164,1.363009,-34.322460,0.081690,0.048866,0.001036,-0.280267,-4.351880,0.196174
71,2081046187,104.871376,1.355026,-34.392773,0.029324,0.056695,-0.031157,1.889878,-4.007146,0.445142
72,2081062854,104.930038,1.344878,-34.461094,-0.024469,0.060430,0.030189,3.533650,-3.857145,0.542932
73,2081079521,104.993057,1.332909,-34.526276,-0.002361,0.032855,0.061963,3.790508,-3.644995,0.604172
74,2081096188,105.029373,1.317434,-34.589157,0.000141,0.021964,0.060847,2.183733,-3.456498,0.774893
75,2081112855,105.038933,1.299627,-34.651024,-0.001761,0.045867,0.000872,0.576318,-3.359669,0.895183
76,2081129522,105.043594,1.278360,-34.710457,0.001167,0.081429,0.006118,0.277827,-3.165333,1.058490
77,2081146189,105.054642,1.255320,-34.769371,-0.014646,0.050687,0.012908,0.658957,-3.105988,1.153474
78,2081162856,105.069969,1.230514,-34.828457,0.005867,0.028052,0.005432,0.914124,-3.089058,1.259421
79,2081179523,105.085373,1.204323,-34.886208,-0.017936,0.011193,0.008631,0.914444,-2.988566,1.319355
80,2081196190,105.084473,1.178378,-34.946262,0.020963,0.027431,0.010231,-0.061394,-3.125620,1.341792
81,2081212857,105.071800,1.151571,-35.007675,0.025801,0.017242,-0.018403,-0.768151,-3.191727,1.412496
82,2081229524,105.069992,1.124507,-35.070774,0.013014,0.027212,-0.048633,-0.116013,-3.285444,1.453233
83,2081246191,105.096031,1.094171,-35.133507,0.019945,0.011813,-0.056346,1.551419,-3.212102,1.637503
84,2081262858,105.151894,1.062594,-35.193935,0.041118,0.011162,-0.042442,3.336406,-3.058771,1.676012
85,2081279525,105.222466,1.030466,-35.250832,0.041528,-0.010443,-0.038923,4.213427,-2.841162,1.655154
86,2081296192,105.291443,1.000376,-35.304871,0.042024,0.004491,-0.037271,4.114508,-2.705751,1.495814
87,2081312859,105.343529,0.972095,-35.357758,0.040550,-0.003468,-0.015129,3.097312,-2.664464,1.375601
88,2081329526,105.374222,0.944366,-35.409164,-0.001217,-0.040998,-0.005824,1.808801,-2.585897,1.321775
89,2081346193,105.385933,0.915409,-35.462357,-0.033863,-0.045087,-0.011555,0.671507,-2.668126,1.421857
90,2081362860,105.379059,0.885914,-35.515785,-0.002712,-0.028880,-0.053110,-0.445021,-2.673428,1.457279
91,2081379527,105.383644,0.855293,-35.571999,-0.017042,-0.000405,-0.094149,0.243929,-2.817614,1.567004
92,2081396194,105.416718,0.822330,-35.629803,-0.023820,-0.042839,-0.060674,1.952693,-2.871210,1.728275
93,2081412861,105.449326,0.786564,-35.691235,-0.070191,-0.058622,-0.030582,1.926107,-3.035028,1.950247
94,2081429528,105.462326,0.748654,-35.754929,-0.078362,-0.049216,-0.028243,0.748717,-3.129859,2.111287
95,2081446195,105.460930,0.710042,-35.822800,-0.008817,-0.019119,-0.058020,-0.115001,-3.359605,2.219078
96,2081462862,105.470184,0.668879,-35.891331,-0.000716,-0.016351,-0.038071,0.523005,-3.357018,2.377505
97,2081479529,105.486343,0.625911,-35.960941,-0.078337,-0.004392,-0.024434,0.935446,-3.390686,2.499921
98,2081496196,105.511696,0.583136,-36.033413,0.029832,-0.037668,-0.043751,1.484262,-3.557169,2.535933
99,2081512863,105.534492,0.541120,-36.108067,-0.023289,-0.051337,-0.027590,1.330202,-3.694709,2.528774
100,2081529530,105.524948,0.500403,-36.186478,-0.026568,-0.020329,-0.024584,-0.611401,-3.932101,2.514073
101,2081546197,105.513313,0.459934,-36.265148,0.030758,-0.043346,-0.059523,-0.740009,-3.950932,2.503037
102,2081562864,105.524460,0.421761,-36.344269,-0.005333,-0.033436,-0.069399,0.622651,-4.014202,2.377851
103,2081579531,105.561401,0.387509,-36.421993,-0.022690,-0.009953,-0.027050,2.167558,-3.995722,2.130394
104,2081596198,105.595016,0.358066,-36.500175,-0.039744,-0.082518,0.013012,1.965141,-4.097635,1.862088
105,2081612865,105.594551,0.334664,-36.581074,-0.033194,-0.067336,-0.005271,-0.080411,-4.350765,1.558155
106,2081629532,105.572113,0.317544,-36.662098,0.018467,-0.010147,-0.040356,-1.399849,-4.460682,1.196004
107,2081646199,105.557983,0.306720,-36.744560,0.038120,-0.013083,-0.022017,-0.901900,-4.645658,0.854190
108,2081662866,105.566360,0.297813,-36.827068,-0.020183,-0.009477,0.000427,0.448715,-4.680760,0.744171
109,2081679533,105.583076,0.295272,-36.912209,0.008241,0.010893,0.001584,0.948009,-4.933864,0.419209
110,2081696200,105.597565,0.297138,-37.000195,-0.019057,0.005330,0.010988,0.815207,-5.168823,0.211580
111,2081712867,105.597351,0.305927,-37.087181,-0.084156,0.002519,0.049408,-0.066055,-5.222674,-0.203595
112,2081729534,105.573837,0.318599,-37.174904,-0.047906,0.043822,0.005475,-1.463587,-5.327443,-0.417551
113,2081746201,105.554062,0.331613,-37.258877,-0.018121,0.024698,0.025997,-1.239488,-5.117252,-0.499115
114,2081762868,105.557343,0.344882,-37.338245,-0.026030,0.019172,0.016809,0.144231,-4.854054,-0.589310
115,2081779535,105.569679,0.355080,-37.415314,-0.051122,-0.010234,0.043403,0.686196,-4.671756,-0.448005
116,2081796202,105.573921,0.361774,-37.491066,-0.062487,-0.035731,0.075695,0.202590,-4.539839,-0.265655
117,2081812869,105.558998,0.365558,-37.566128,-0.070254,-0.030518,0.058517,-0.946998,-4.453807,-0.108732
118,2081829536,105.530838,0.365163,-37.641499,-0.052490,-0.005074,0.070722,-1.742151,-4.403503,0.135626
119,2081846203,105.498177,0.357628,-37.717377,-0.064740,-0.002768,0.090506,-2.011583,-4.320005,0.555175
120,2081862870,105.458023,0.341293,-37.794041,-0.067641,-0.011339,0.097399,-2.461368,-4.225339,1.073691
121,2081879537,105.404083,0.317230,-37.872871,-0.078486,-0.019108,0.089302,-3.290425,-4.228337,1.551649
122,2081896204,105.343521,0.285167,-37.955395,-0.060032,0.008726,0.068746,-3.687870,-4.318941,2.070204
123,2081912871,105.293358,0.246472,-38.038300,-0.052553,-0.015831,0.078548,-3.066775,-4.238121,2.454881
124,2081929538,105.252823,0.200022,-38.122402,-0.046252,-0.005565,0.065366,-2.492424,-4.187305,2.919624
125,2081946205,105.218269,0.148717,-38.208923,-0.062474,-0.000090,0.072153,-2.137610,-4.254026,3.236414
126,2081962872,105.174454,0.092114,-38.300159,-0.002359,0.028424,0.123449,-2.697748,-4.446430,3.614625
127,2081979539,105.112709,0.032317,-38.393044,0.014572,0.053618,0.078726,-3.779270,-4.496067,3.821614
128,2081996206,105.054718,-0.027427,-38.485107,0.017321,0.073494,0.068686,-3.558539,-4.454818,3.801149
129,2082012873,105.001549,-0.085931,-38.577995,-0.046405,0.093758,0.093795,-3.276082,-4.525290,3.737629
130,2082029540,104.942665,-0.143214,-38.670483,0.010854,0.101140,0.093339,-3.624274,-4.526623,3.656284
131,2082046207,104.887184,-0.197272,-38.763680,0.077296,0.082111,0.071115,-3.425136,-4.622568,3.476163
132,2082062874,104.842697,-0.249701,-38.854809,0.145167,0.065376,0.077235,-2.772460,-4.530042,3.346024
133,2082079541,104.817574,-0.298445,-38.944695,0.185259,0.064918,0.143206,-1.613990,-4.517975,3.109778
134,2082096208,104.803734,-0.340729,-39.031368,0.097338,0.049372,0.223702,-0.941151,-4.431920,2.683808
135,2082112875,104.736099,-0.374843,-39.114582,0.101892,0.073189,0.355782,-4.172143,-4.357707,2.153471
136,2082129542,104.531624,-0.394658,-39.197056,0.121562,-0.085259,0.571234,-12.384120,-4.539483,1.301952
137,2082146209,104.109665,-0.392850,-39.276306,0.258948,-0.237665,0.933627,-25.432112,-4.686981,-0.027354
138,2082162876,103.387909,-0.355731,-39.344734,0.247914,-0.516641,1.513619,-43.413902,-4.569887,-2.287242
139,2082179543,102.420898,-0.272978,-39.374454,-0.197773,-0.339950,1.961329,-58.110691,-2.901941,-5.541848
140,2082196210,101.348427,-0.141602,-39.336487,-1.111112,0.450562,1.876044,-64.419716,0.549766,-9.282719
141,2082212877,100.340797,0.031779,-39.211231,-1.282938,0.986549,1.740326,-60.528625,5.369180,-12.728635
142,2082229544,99.561806,0.229263,-39.002647,-1.113678,1.315421,1.180184,-46.847744,10.227516,-14.927790
143,2082246211,99.120399,0.440932,-38.722618,-0.550240,1.595757,1.144543,-26.662710,14.467488,-16.348831
144,2082262878,99.052917,0.654966,-38.391258,-0.383718,1.546267,0.742785,-4.321896,17.556459,-16.907707
145,2082279545,99.353409,0.863027,-38.023525,-0.177983,1.743542,0.837174,17.651302,19.738106,-16.936186
146,2082296212,99.938622,1.062078,-37.626671,-0.380635,1.370706,0.652115,34.622456,21.430744,-16.846176
147,2082312879,100.661354,1.256676,-37.202007,-0.320963,1.355878,0.522047,42.756077,22.940310,-17.123606
148,2082329546,101.450630,1.445334,-36.748783,-0.410609,1.232780,0.544602,46.620899,24.477394,-17.401789
149,2082346213,102.213921,1.632728,-36.270279,-0.468741,1.025709,0.411153,44.929703,25.753233,-17.967102
150,2082362880,102.854164,1.822587,-35.769386,-0.570629,0.690969,0.665447,37.406788,26.822720,-18.714378
151,2082379547,103.343918,2.024387,-35.252754,-0.558716,0.354708,0.620711,28.245169,27.404156,-19.888756
152,2082396214,103.701622,2.245366,-34.721931,-0.525963,0.026488,0.662455,20.175694,27.819244,-21.407370
153,2082412881,103.972183,2.494577,-34.171391,-0.282879,0.068412,0.587844,14.770009,28.444857,-23.484964
154,2082429548,104.238792,2.770031,-33.595665,-0.044411,-0.406343,0.609429,14.311841,29.411991,-25.511272
155,2082446215,104.594238,3.071488,-32.990658,-0.072436,-0.721027,0.490120,19.379419,30.581188,-27.616722
156,2082462882,105.096283,3.397341,-32.359943,-0.333683,-0.383858,0.525070,27.888803,31.484093,-29.652990
157,2082479549,105.676483,3.744295,-31.719044,-0.649418,-1.234650,0.848121,32.320652,31.451389,-31.328186
158,2082496216,106.189987,4.111317,-31.083036,0.389295,-0.402605,1.214393,28.102694,30.530979,-32.700211
159,2082512883,106.683136,4.485765,-30.446772,1.654880,-0.742487,0.972230,26.634142,30.123512,-33.395824
160,2082529550,107.301025,4.866668,-29.782528,3.735066,0.909373,-1.521518,33.729374,31.273996,-34.544304
161,2082546217,108.286758,5.266751,-29.059637,1.823048,0.046107,-0.407101,55.211418,33.767899,-37.147198
162,2082562884,109.635498,5.685370,-28.286850,-0.014349,1.085040,-0.301507,76.395226,35.455753,-39.843746
163,2082579551,110.896080,6.121843,-27.507639,-1.033513,-1.421383,1.401612,70.717201,34.523624,-41.768013
164,2082596218,112.107094,6.576598,-26.724903,-0.217802,-0.664843,2.224154,67.363113,33.393093,-43.586060
165,2082612885,113.091400,7.059059,-25.952625,-0.455879,-1.388491,-0.013860,53.456879,31.315933,-45.496460
166,2082629552,113.764534,7.569580,-25.189152,-0.099196,-1.180003,2.542358,34.457176,29.470173,-47.258862
167,2082646219,114.320145,8.097140,-24.422680,-0.176954,-1.190518,-0.049957,26.973894,28.669508,-48.560112
168,2082662886,114.861328,8.636438,-23.648836,0.054520,-1.138947,0.602974,25.624350,28.261305,-49.629486
169,2082679553,115.542130,9.178173,-22.865032,-0.215206,-1.022168,-0.454892,33.476547,28.152309,-50.285084
170,2082696220,116.265228,9.720611,-22.072580,0.186459,-0.698858,-0.710322,35.494118,27.924183,-50.857449
171,2082712887,116.932144,10.256003,-21.279058,0.327977,-1.019764,-0.816096,31.671021,27.495203,-50.810131
172,2082729554,117.531410,10.773651,-20.486807,0.259146,-0.636293,-1.732166,27.200336,27.293159,-50.094913
173,2082746221,118.125092,11.258922,-19.701309,0.127208,-0.685323,-2.011747,26.533211,27.266962,-48.438393
174,2082762888,118.782936,11.702787,-18.924421,0.151116,-0.362624,-2.399300,30.112173,27.420975,-46.273869
175,2082779555,119.434067,12.108783,-18.165380,-0.019358,-0.417487,-2.079908,29.593990,27.030256,-44.055172
176,2082796222,119.950989,12.484202,-17.432352,-0.106411,-0.348338,-1.772054,21.571690,26.117632,-41.947227
177,2082812889,120.208679,12.836431,-16.736990,-0.288231,-0.478474,-1.609234,6.240231,24.577913,-39.784443
178,2082829556,120.219482,13.167949,-16.083273,0.189170,-0.317979,-1.534222,-8.250485,22.959841,-37.513958
179,2082846223,120.137726,13.466795,-15.474896,0.383115,0.062549,-2.040186,-13.386664,21.636972,-34.450558
180,2082862890,120.138863,13.729400,-14.907866,0.362369,0.287219,-1.988839,-8.004382,20.630247,-31.323586
181,2082879557,120.260643,13.956595,-14.386086,0.421055,0.601586,-2.004095,-0.258126,19.359034,-28.167271
182,2082896224,120.378708,14.158468,-13.915415,0.420002,0.346487,-1.432220,0.147476,17.476599,-25.380119
183,2082912891,120.366714,14.344881,-13.505418,0.646786,0.282340,-1.053376,-6.853606,14.859651,-22.802279
184,2082929558,120.221466,14.520405,-13.157365,0.589129,0.506419,-1.021693,-13.997659,12.094470,-20.393488
185,2082946225,120.059044,14.685324,-12.861843,0.423522,0.680729,-0.921078,-14.297014,9.814775,-18.273151
186,2082962892,119.935265,14.842979,-12.613121,0.245529,1.198018,-1.112791,-11.313827,7.714396,-16.508486
187,2082979559,119.850563,14.999952,-12.406205,-0.080517,1.308283,-0.831554,-8.364772,5.653504,-15.246092
188,2082996226,119.779564,15.160432,-12.237717,-0.463850,1.255077,-0.712423,-6.980005,3.630790,-14.309803
189,2083012893,119.672089,15.325244,-12.107738,-0.645860,0.930523,-0.386842,-8.592811,1.582053,-13.419668
190,2083029560,119.526863,15.491134,-12.014590,-0.772785,0.588745,-0.288979,-10.294138,-0.278526,-12.416691
191,2083046227,119.352364,15.651739,-11.956485,-0.633112,0.345991,-0.249842,-11.502059,-1.857140,-11.141381
192,2083062894,119.174400,15.795898,-11.929658,-0.247343,0.000736,-0.111924,-11.210789,-2.921233,-9.400687
193,2083079561,118.979477,15.915967,-11.936176,-0.017476,-0.311138,0.016641,-11.685046,-3.874679,-7.210453
194,2083096228,118.758362,16.010012,-11.975197,0.128156,-0.406710,0.088923,-12.718687,-4.740569,-4.951528
195,2083112895,118.539162,16.081654,-12.039742,0.170680,-0.380840,-0.013020,-12.174812,-5.372959,-3.084655
196,2083129562,118.318413,16.128782,-12.127724,0.278872,-0.240069,-0.048347,-11.874681,-5.853081,-1.169886
197,2083146229,118.077705,16.160255,-12.230486,0.291035,-0.307240,-0.024591,-12.820395,-6.158988,0.036223
198,2083162896,117.806282,16.175074,-12.347242,0.172543,-0.471289,0.064428,-14.425796,-6.407893,1.268221
199,2083179563,117.490402,16.177267,-12.478098,0.010401,-0.699424,0.158512,-16.857977,-6.789281,2.283087
200,2083196230,117.124985,16.171089,-12.621707,-0.056240,-0.789848,0.173768,-19.612993,-7.232385,3.027317
201,2083212897,116.714752,16.160206,-12.772860,-0.038275,-0.605302,0.166476,-22.176210,-7.521581,3.427236
202,2083229564,116.284065,16.144955,-12.925776,0.073338,-0.384468,0.140763,-23.373753,-7.529754,3.652872
203,2083246231,115.885719,16.126551,-13.075500,0.047590,-0.122104,0.055700,-21.488400,-7.316908,3.687819
204,2083262898,115.582344,16.104433,-13.216557,0.060428,-0.002725,-0.079180,-15.936481,-6.800268,3.627242
205,2083279565,115.417999,16.081253,-13.349765,0.061214,-0.159039,-0.106647,-7.728635,-6.384582,3.462832
206,2083296232,115.384125,16.058113,-13.477209,0.093441,-0.290059,0.011925,-0.000563,-6.094223,3.307094
207,2083312899,115.424500,16.037868,-13.604892,0.181139,-0.418511,0.220478,4.458090,-6.182459,3.156734
208,2083329566,115.476753,16.023853,-13.737100,0.152533,-0.370062,0.284586,5.242966,-6.576459,2.936375
209,2083346233,115.499855,16.016579,-13.875164,0.188365,-0.195327,0.225890,3.591625,-7.053406,2.720677
210,2083362900,115.486893,16.016117,-14.015184,0.338090,-0.123376,0.107427,1.459803,-7.331790,2.400736
211,2083379567,115.462929,16.022032,-14.157011,0.451016,-0.058109,-0.054550,0.829435,-7.591657,2.096906
212,2083396234,115.460281,16.030256,-14.298332,0.516609,0.083416,-0.155073,2.102412,-7.625773,1.956971
213,2083412901,115.500534,16.043499,-14.439015,0.538058,0.084744,-0.107526,4.664784,-7.721077,1.669699
214,2083429568,115.538704,16.061949,-14.578980,0.631873,-0.098991,0.021476,4.531444,-7.816011,1.374563
215,2083446235,115.448883,16.087877,-14.725679,0.304056,-0.539123,0.306307,-3.034411,-8.359589,1.130458
216,2083462902,115.148399,16.124657,-14.884635,-0.053456,-0.545446,0.382527,-15.463827,-9.284653,0.815093
217,2083479569,114.695450,16.172541,-15.056272,-0.043975,-0.392335,0.168694,-24.391212,-10.239356,0.456887
218,2083496236,114.208549,16.234180,-15.234705,0.025303,-0.021035,0.140105,-26.304548,-10.947668,-0.216863
219,2083512903,113.771667,16.310020,-15.412285,0.100930,0.190381,0.169583,-23.304214,-11.253401,-1.104397
220,2083529570,113.419106,16.396935,-15.588517,0.062382,0.095788,0.165568,-18.255404,-11.443517,-1.823243
221,2083546237,113.148987,16.491714,-15.765203,-0.003872,0.024434,0.129867,-13.284308,-11.645466,-2.310409
222,2083562904,112.940887,16.594570,-15.941701,-0.099012,0.062331,0.061573,-9.550023,-11.815135,-2.811162
223,2083579571,112.767609,16.705215,-16.120340,-0.055824,0.260232,0.063478,-7.405123,-12.098537,-3.234733
224,2083596238,112.587158,16.823338,-16.300304,-0.039167,0.193336,0.188699,-7.791516,-12.329565,-3.658764
225,2083612905,112.364502,16.951057,-16.482807,-0.058766,-0.043986,0.350474,-10.258330,-12.669027,-4.180995
226,2083629572,112.086502,17.084408,-16.669847,-0.037894,-0.111960,0.317263,-13.476831,-13.016775,-4.452889
227,2083646239,111.784462,17.217112,-16.861944,0.046737,-0.145905,0.291131,-14.802905,-13.247610,-4.376358
228,2083662906,111.484680,17.346785,-17.052046,-0.022953,0.041542,0.130816,-14.678515,-13.049700,-4.322380
229,2083679573,111.205742,17.473475,-17.239445,-0.030863,0.003742,0.163138,-13.451792,-12.816726,-4.279900
230,2083696240,110.975563,17.591053,-17.419868,-0.127413,-0.026739,0.070432,-10.629473,-12.226618,-3.972982
231,2083712907,110.818596,17.697622,-17.592253,-0.141720,0.037852,0.017032,-6.362406,-11.545366,-3.562182
232,2083729574,110.745880,17.795725,-17.755669,-0.073528,0.049190,-0.001913,-1.454315,-10.875976,-3.294409
233,2083746241,110.719269,17.887753,-17.913055,0.032960,0.083757,-0.001176,1.215995,-10.418738,-3.085973
234,2083762908,110.686188,17.971809,-18.066381,0.037546,0.006555,0.013164,0.765737,-10.026825,-2.728407
235,2083779575,110.623543,18.048994,-18.214725,0.009459,-0.005939,-0.019408,-1.086120,-9.610874,-2.451674
236,2083796242,110.543839,18.119968,-18.358351,0.061435,0.021743,-0.112001,-2.188798,-9.222073,-2.211401
237,2083812909,110.460854,18.181118,-18.498947,0.074979,0.062489,-0.049580,-2.430249,-8.850163,-1.733404
238,2083829576,110.376945,18.237404,-18.634714,0.068924,0.043348,0.081567,-2.570145,-8.486590,-1.570277
239,2083846243,110.277687,18.288010,-18.767517,-0.006927,0.053847,0.150151,-3.538485,-8.206759,-1.323255
240,2083862910,110.163765,18.330999,-18.893711,-0.037787,0.091856,0.174653,-4.537010,-7.693058,-1.040862
241,2083879577,110.038940,18.367476,-19.015577,-0.046389,0.224038,0.051372,-5.269584,-7.325785,-0.774708
242,2083896244,109.925392,18.398045,-19.127548,-0.083531,0.197464,-0.037567,-4.775387,-6.674646,-0.649602
243,2083912911,109.868896,18.419893,-19.229046,-0.082856,0.194193,-0.203885,-1.550132,-5.934590,-0.370757
244,2083929578,109.894981,18.430391,-19.321400,0.060033,0.122672,-0.254290,3.232969,-5.213644,0.091252
245,2083946245,109.992981,18.436096,-19.406610,0.164458,0.138742,-0.212994,7.413116,-4.731281,0.228830
246,2083962912,110.128426,18.441864,-19.489645,0.257934,0.187000,-0.101610,9.619616,-4.613835,0.191794
247,2083979579,110.257439,18.453434,-19.574913,0.201184,0.168219,-0.023786,9.274004,-4.848938,-0.081418
248,2083996246,110.336227,18.474094,-19.667040,0.032359,0.039442,0.070619,6.393501,-5.402334,-0.449157
249,2084012913,110.351418,18.500509,-19.767687,-0.097149,-0.018282,0.049520,2.741859,-5.975956,-0.599978
250,2084029580,110.304466,18.535292,-19.874195,-0.101662,-0.071613,-0.088837,-0.872304,-6.461457,-0.956660
251,2084046247,110.216011,18.572744,-19.988289,-0.106048,-0.069761,-0.253882,-3.215496,-6.921154,-0.965983
252,2084062914,110.122475,18.613085,-20.103601,-0.053273,-0.026394,-0.475087,-3.490282,-7.045146,-1.115625
253,2084079581,110.046783,18.649002,-20.223896,0.066128,-0.018553,-0.684415,-2.320255,-7.217813,-0.779497
254,2084096248,110.007561,18.679638,-20.352196,0.217294,0.025406,-0.823134,0.026644,-7.536308,-0.333990
255,2084112915,109.990746,18.704922,-20.492626,0.354630,0.019700,-0.982552,1.607447,-8.073830,0.198595
256,2084129582,109.940926,18.729237,-20.652903,0.518624,0.011678,-1.047107,0.011161,-9.113435,0.633306
257,2084146249,109.788559,18.750963,-20.840950,0.669024,-0.118667,-1.221178,-5.602781,-10.547174,1.298007
258,2084162916,109.496933,18.768522,-21.059805,0.863937,-0.136360,-1.567788,-13.360520,-12.119546,2.079273
259,2084179583,109.089401,18.781403,-21.309645,1.123451,-0.181551,-1.819591,-19.713919,-13.707268,2.850424
260,2084196250,108.582825,18.783287,-21.590853,1.244464,0.054242,-1.983332,-25.049524,-15.211426,3.938124
261,2084212917,107.978821,18.779799,-21.901377,1.153340,0.123062,-2.030675,-30.328421,-16.740812,4.617509
262,2084229584,107.339127,18.765480,-22.238365,1.204927,0.190410,-2.324712,-31.962616,-18.038321,5.509146
263,2084246251,106.731033,18.734959,-22.596096,1.129046,-0.038713,-2.477211,-29.673956,-18.952948,6.585972
264,2084262918,106.164406,18.686810,-22.972420,0.897754,-0.135841,-2.159202,-26.847456,-19.750675,7.704940
265,2084279585,105.603020,18.614271,-23.367294,0.500075,-0.129751,-1.689206,-26.197636,-20.458216,9.207387
266,2084296252,105.022247,18.510632,-23.775534,0.107109,-0.362966,-1.228570,-27.140566,-20.811653,11.005794
267,2084312919,104.423882,18.367300,-24.197264,-0.042321,-0.396088,-0.894233,-27.991537,-21.088881,13.293907
268,2084329586,103.801476,18.181305,-24.625393,-0.363923,-0.551449,-0.387332,-29.380230,-20.994114,15.646480
269,2084346253,103.077469,17.948349,-25.058254,-0.763932,-0.599760,0.154501,-35.475994,-20.825960,18.209702
270,2084362920,102.210640,17.661705,-25.495705,-1.109827,-0.347694,0.600812,-44.069870,-20.678837,21.128977
271,2084379587,101.221130,17.316490,-25.932922,-1.448833,-0.250204,0.594196,-51.571846,-20.352715,24.242033
272,2084396254,100.171143,16.909136,-26.369230,-1.444872,-0.165441,0.453449,-55.378494,-20.107769,27.542498
273,2084412921,99.116226,16.442656,-26.797989,-1.223606,-0.129201,-0.014409,-55.992630,-19.665922,30.606396
274,2084429588,98.032951,15.920018,-27.221401,-0.863659,-0.254802,-0.058231,-57.997055,-19.508707,33.532307
275,2084446255,96.868515,15.324326,-27.633217,-0.120670,0.516712,6.119577,-63.288403,-19.019701,37.414188
276,2084462922,95.443611,14.626309,-28.045193,-3.374895,0.618789,1.814837,-79.183914,-19.308928,43.089912
277,2084479589,94.140228,13.839378,-28.438164,-0.964440,-0.034007,2.281013,-72.480957,-18.887358,47.855740
278,2084496256,93.367950,13.010627,-28.773180,-0.425600,0.048289,-2.731184,-41.744747,-16.311131,49.795971
279,2084512923,92.458008,12.178715,-29.068182,0.057959,-0.240544,-1.596615,-50.812492,-14.772323,49.626324
280,2084529590,91.285027,11.350399,-29.323433,-0.073848,-0.109545,0.318214,-67.325890,-13.419240,49.057293
281,2084546257,90.299370,10.521984,-29.520550,-0.102920,0.283891,0.038696,-56.969864,-10.981820,48.758915
282,2084562924,89.804527,9.690501,-29.653790,-0.104941,0.150202,0.199796,-28.363983,-7.882949,48.794113
283,2084579591,89.930717,8.863020,-29.719534,0.387150,0.590692,0.505876,8.129880,-4.064911,48.537785
284,2084596258,90.431427,8.050180,-29.732958,0.073647,0.324108,0.813212,30.080540,-0.699145,47.671001
285,2084612925,90.878281,7.261756,-29.724396,-0.086666,0.134450,1.736358,26.663187,0.993789,46.194988
286,2084629592,91.161011,6.507766,-29.703140,-0.120103,0.110051,1.511494,16.729622,2.015690,44.108551
287,2084646259,91.357124,5.791726,-29.671906,-0.154706,0.189578,0.713510,11.485112,2.751162,41.810482
288,2084662926,91.591919,5.109573,-29.632505,-0.205038,0.477324,0.308243,13.782491,3.351603,39.754723
289,2084679593,91.834084,4.461277,-29.595846,-0.481427,0.223673,0.390716,14.263762,3.299684,37.715752
290,2084696260,91.934822,3.841488,-29.575796,-0.511760,-0.158550,0.816512,5.876099,2.367374,36.029560
291,2084712927,91.895355,3.247556,-29.577267,-0.357195,-0.397204,0.674861,-2.442156,1.048800,34.521488
292,2084729594,91.939400,2.676723,-29.586666,0.068399,-0.432097,-0.032445,2.592316,0.528040,33.152634
293,2084746261,92.250046,2.126995,-29.594677,0.260714,-0.401122,-0.245990,18.580086,0.669218,31.881565
294,2084762928,92.697670,1.600718,-29.606863,0.240276,-0.386131,0.231132,26.802649,0.575604,30.480549
295,2084779595,93.006950,1.099610,-29.640743,0.006841,-0.212652,0.967645,18.527487,-0.592104,29.031273
296,2084796262,93.002350,0.626358,-29.703951,-0.195640,0.017737,0.991881,-0.296232,-2.355669,27.453617
297,2084812929,92.818977,0.178405,-29.789692,-0.257715,0.440350,0.496670,-11.042959,-3.830915,26.004707
298,2084829596,92.762436,-0.251642,-29.884502,-0.150577,0.513134,-0.224997,-3.474127,-4.483424,24.951288
299,2084846263,93.027664,-0.667624,-29.978367,-0.025502,0.250797,-0.401574,15.789500,-4.420099,24.114281
300,2084862930,93.633286,-1.074930,-30.071743,0.024257,-0.055782,-0.390687,36.172928,-4.228710,23.625853
301,2084879597,94.360130,-1.474042,-30.173225,-0.209542,-0.173569,0.182349,43.396038,-4.459926,23.215685
302,2084896264,94.951004,-1.864205,-30.295336,-0.348309,-0.217785,0.221181,35.159969,-5.455283,22.830067
303,2084912931,95.458786,-2.248074,-30.436262,-0.270368,0.073111,0.099689,30.084913,-6.383562,22.607645
304,2084929598,96.028931,-2.627140,-30.586548,-0.366110,-0.056183,-0.109258,33.746368,-6.744619,22.435736
305,2084946265,96.456879,-2.982660,-30.744747,-0.641576,-0.348253,2.168747,25.135551,-7.161839,21.140249
306,2084962932,96.722397,-3.248309,-30.896700,0.534044,-0.150536,3.432521,15.360804,-7.272906,15.784168
307,2084979599,97.258347,-3.391942,-31.023174,1.466670,-0.008685,0.453382,31.639202,-6.528421,8.381219
308,2084996266,98.182793,-3.411298,-31.132109,0.542373,1.155434,-0.162435,54.999805,-6.366796,0.929552
309,2085012933,99.162582,-3.344100,-31.239117,-0.950005,0.109140,0.175204,58.328274,-6.999344,-4.116780
310,2085029600,99.690613,-3.246813,-31.382923,-1.201370,0.052754,1.074230,31.105989,-9.508622,-5.443526
311,2085046267,99.802467,-3.161095,-31.572947,-0.283401,0.606105,1.598457,5.995623,-12.144704,-4.235497
312,2085062934,99.860901,-3.095096,-31.789446,0.597703,0.050261,0.340223,2.718480,-13.509295,-2.779440
313,2085079601,100.025787,-3.038428,-32.012554,1.261845,-0.051145,-0.799503,9.097532,-13.806424,-2.134718
314,2085096268,100.318565,-2.989518,-32.238594,1.105554,-0.033341,-0.543265,16.772934,-13.903030,-1.592511
315,2085112935,100.645844,-2.956800,-32.481049,0.434973,-0.199953,0.311486,18.797050,-14.694597,-0.385433
316,2085129602,100.997055,-2.942898,-32.743980,0.283575,0.064426,0.347544,20.178787,-15.684815,1.039410
317,2085146269,101.429924,-2.944606,-33.020878,0.299389,0.153528,-0.305223,25.036461,-16.308401,2.227025
318,2085162936,101.874962,-2.953912,-33.308182,0.194411,0.237921,-0.330145,25.730968,-16.799900,2.923898
319,2085179603,102.221344,-2.968766,-33.610100,-0.026167,0.239499,0.034554,19.761738,-17.557829,3.547374
320,2085196270,102.460403,-2.991022,-33.926411,-0.034347,0.275916,0.261111,13.273478,-18.281519,4.254886
321,2085212937,102.703453,-3.018344,-34.249752,0.131452,0.193240,0.036788,13.480712,-18.602272,4.720474
322,2085229604,103.010628,-3.051904,-34.571178,0.287743,0.056664,-0.058146,17.323275,-18.377615,5.148363
323,2085246271,103.300941,-3.088024,-34.890785,0.412911,-0.024952,0.149195,16.305574,-18.202896,5.367889
324,2085262938,103.526749,-3.127425,-35.213264,0.336386,-0.051666,0.230687,12.413506,-18.295401,5.680235
325,2085279605,103.748344,-3.169599,-35.532269,0.155697,0.063017,0.182537,12.157646,-18.026134,5.863096
326,2085296272,104.027611,-3.213102,-35.842876,0.066616,0.212733,0.045845,15.630789,-17.487274,5.898379
327,2085312939,104.309280,-3.258542,-36.145248,-0.047707,0.306744,0.116898,15.788565,-16.944334,5.975116
328,2085329606,104.489082,-3.303029,-36.442101,-0.037400,0.145536,0.100381,9.679861,-16.606993,5.904873
329,2085346273,104.534134,-3.346262,-36.736477,0.086317,0.112094,0.184961,1.590518,-16.469023,5.827939
330,2085362940,104.476791,-3.391246,-37.022831,0.175102,0.221880,0.116871,-4.536986,-15.977576,5.807410
331,2085379607,104.366264,-3.442074,-37.298016,0.064418,0.271313,0.000839,-7.704949,-15.250267,5.956554
332,2085396274,104.250229,-3.497425,-37.560474,-0.038284,0.234546,-0.185233,-8.004386,-14.456630,6.001029
333,2085412941,104.117325,-3.557755,-37.812778,-0.084294,-0.095894,-0.117228,-8.993895,-13.809267,6.110472
334,2085429608,103.936783,-3.624403,-38.054691,0.095998,-0.271031,-0.063672,-11.831224,-13.131609,6.289302
335,2085446275,103.717979,-3.699672,-38.284668,0.132060,-0.291169,-0.059566,-14.095893,-12.339883,6.574642
336,2085462942,103.507545,-3.782049,-38.497906,-0.024208,-0.181096,-0.225495,-13.549057,-11.292461,6.706034
337,2085479609,103.327759,-3.869179,-38.692604,-0.225588,-0.139613,-0.227628,-11.654481,-10.173604,6.688052
338,2085496276,103.157539,-3.959795,-38.868362,-0.372773,-0.139794,-0.148887,-11.020079,-9.044083,6.600584
339,2085512943,102.994461,-4.053577,-39.023823,-0.250662,-0.183424,-0.132470,-10.523625,-7.839822,6.485531
340,2085529610,102.855049,-4.147540,-39.159470,-0.124296,-0.288941,-0.069841,-9.031761,-6.701349,6.209476
341,2085546277,102.736725,-4.241736,-39.272228,-0.016037,-0.321999,-0.024945,-7.678691,-5.379655,5.904787
342,2085562944,102.628731,-4.333375,-39.361443,-0.065542,-0.245643,0.065729,-6.964313,-4.052225,5.434793
343,2085579611,102.520111,-4.422959,-39.426514,-0.122562,-0.178589,0.058384,-6.899257,-2.680984,4.992205
344,2085596278,102.400284,-4.508315,-39.471458,-0.208942,-0.246297,0.042150,-7.482764,-1.572428,4.479656
345,2085612945,102.278786,-4.590343,-39.495529,-0.215211,-0.286246,0.042885,-7.487591,-0.407832,4.014237
346,2085629612,102.178940,-4.666841,-39.497158,-0.154138,-0.227097,0.054840,-6.081647,0.822776,3.405664
347,2085646279,102.139282,-4.742114,-39.478813,-0.133575,-0.173884,-0.017171,-2.370737,1.968534,3.083212
348,2085662946,102.162720,-4.812918,-39.441128,-0.104843,-0.063990,-0.012186,1.512718,3.041694,2.578168
349,2085679613,102.216347,-4.881609,-39.390430,-0.173255,-0.002752,-0.035179,3.393471,3.777226,2.288399
350,2085696280,102.268410,-4.948340,-39.336296,-0.132058,-0.015937,-0.060879,3.319604,3.956477,2.126578
351,2085712947,102.333565,-5.013590,-39.283089,0.019404,0.021274,0.023053,4.105338,3.886414,2.047230
352,2085729614,102.360870,-5.077559,-39.234997,-0.002884,0.050752,0.016625,1.811106,3.572236,2.035333
353,2085746281,102.333649,-5.138433,-39.195793,0.048163,0.117013,0.022533,-1.506244,3.015300,1.967088
354,2085762948,102.255600,-5.190318,-39.164944,0.055155,0.077694,0.060734,-4.597250,2.408369,1.549396
355,2085779615,102.141037,-5.236299,-39.143803,0.085160,0.091134,0.062988,-6.839859,1.762698,1.329562
356,2085796282,102.028206,-5.273276,-39.132904,0.130895,0.006285,0.127559,-6.791465,1.046221,0.933231
357,2085812949,101.984268,-5.298073,-39.131508,0.125845,0.016023,0.071669,-2.711655,0.337761,0.337736
358,2085829616,102.029854,-5.307869,-39.137459,0.092672,0.035837,0.156445,2.619686,-0.280792,-0.450924
359,2085846283,102.168930,-5.302905,-39.153042,0.160890,0.197984,0.148705,8.175518,-1.027044,-1.196421
360,2085862950,102.382889,-5.277233,-39.179413,0.184885,0.217137,0.176041,12.608493,-1.920364,-2.270478
361,2085879617,102.619698,-5.230713,-39.223774,0.089498,0.261020,0.249963,13.880832,-3.244757,-3.251967
362,2085896284,102.836784,-5.158359,-39.287777,0.056512,0.173996,0.319235,12.592087,-4.739748,-4.492086
363,2085912951,103.005768,-5.062280,-39.374763,0.106266,0.055755,0.415187,9.590686,-6.407404,-5.557024
364,2085929618,103.074905,-4.939470,-39.486832,0.099977,-0.075091,0.508760,3.476765,-8.239903,-6.767877
365,2085946285,103.015266,-4.786341,-39.619495,0.068687,-0.019259,0.517889,-4.337181,-9.852342,-8.261214
366,2085962952,102.872826,-4.601260,-39.768925,-0.107082,0.057482,0.456944,-9.363642,-11.248175,-9.922127
367,2085979619,102.743935,-4.384117,-39.923489,-0.222134,0.162679,0.564040,-8.543177,-11.955945,-11.755858
368,2085996286,102.671387,-4.137372,-40.080883,-0.190644,0.105716,0.423745,-5.139246,-12.495222,-13.470555
369,2086012953,102.659851,-3.858014,-40.238514,0.118372,-0.180355,0.480115,-1.436618,-12.930948,-15.384880
370,2086029620,102.697693,-3.544499,-40.396988,0.373175,-0.402730,0.441510,1.572962,-13.438021,-17.369013
371,2086046287,102.781593,-3.199446,-40.558586,0.487849,-0.316852,0.639395,4.379812,-14.058967,-19.160231
372,2086062954,102.886597,-2.819036,-40.723839,0.191609,-0.129556,0.736306,5.694978,-14.777335,-21.156691
373,2086079621,102.936890,-2.395112,-40.894108,0.062533,0.060304,0.782716,2.468207,-15.685618,-23.613630
374,2086096288,102.855186,-1.922084,-41.073067,-0.102699,-0.039657,0.722741,-5.391479,-16.846531,-26.373169
375,2086112955,102.604431,-1.397628,-41.260765,-0.229240,-0.046537,0.795225,-15.456597,-17.966822,-29.315466
376,2086129622,102.184731,-0.821454,-41.455086,-0.323264,-0.103364,0.963935,-25.490124,-18.859318,-32.364414
377,2086146289,101.725212,-0.199891,-41.654968,-0.326251,-0.226078,0.754380,-27.758469,-19.509991,-35.099609
378,2086162956,101.335014,0.462486,-41.854881,-0.055262,-0.335753,0.702113,-23.466282,-19.751331,-37.643883
379,2086179623,100.986870,1.164026,-42.057259,0.142465,-0.435415,0.584588,-20.797472,-20.115515,-40.046860
380,2086196290,100.567024,1.906470,-42.266201,0.057783,-0.262693,0.730691,-24.935497,-20.696115,-42.519085
381,2086212957,100.085472,2.684239,-42.483849,-0.024744,0.164127,0.583553,-28.450130,-21.258898,-44.673279
382,2086229624,99.606483,3.490618,-42.708328,0.042810,0.348696,0.396753,-28.094116,-21.581381,-46.471851
383,2086246291,99.204353,4.318084,-42.941109,0.230490,0.406389,0.069310,-23.258102,-21.915609,-47.804295
384,2086262958,98.780403,5.160683,-43.188366,0.593086,0.455578,-0.135609,-24.293249,-22.560144,-48.724747
385,2086279625,98.112816,6.018774,-43.464512,0.579369,0.347703,0.090003,-38.523956,-23.926702,-49.606609
386,2086296292,97.214912,6.880567,-43.776604,0.461682,0.735421,-0.033195,-51.854595,-25.389971,-49.866390
387,2086312959,96.302582,7.724415,-44.124378,0.586253,0.590930,2.244501,-52.174782,-26.562935,-48.945618
388,2086329626,95.892563,8.530207,-44.491913,0.874812,0.608714,-1.672741,-21.571516,-26.892542,-46.856998
389,2086346293,96.307495,9.294655,-44.867626,1.196035,-0.021900,-0.384910,28.294153,-27.067781,-44.342464
390,2086362960,97.030586,10.042975,-45.279018,1.102583,0.402497,-1.037098,47.434956,-29.431351,-42.873703
391,2086379627,97.124550,10.787001,-45.779545,0.094682,0.466075,1.016866,10.969866,-34.859894,-41.767059
392,2086396294,96.814659,11.510684,-46.361969,0.915177,1.140629,-0.093521,-11.933493,-39.348392,-40.043564
393,2086412961,96.735291,12.204822,-46.988689,1.012424,0.670363,-0.656352,2.862406,-41.499210,-38.117767
394,2086429628,96.819374,12.873816,-47.658504,0.916534,0.753523,-0.436502,13.665761,-43.736984,-36.333313
395,2086446295,96.929054,13.511034,-48.371735,0.631563,0.913574,-0.276396,16.239262,-45.983704,-34.075531
396,2086462962,96.980850,14.118672,-49.122337,0.174707,0.791766,-0.154936,13.751199,-47.867123,-31.997875
397,2086479629,96.777550,14.699019,-49.910603,0.250587,0.652974,0.102737,-0.540242,-49.689735,-30.185308
398,2086496296,96.219948,15.246109,-50.732788,0.537511,0.220470,-0.130817,-20.823854,-51.103893,-28.321510
399,2086512963,95.399109,15.752411,-51.576263,0.618985,-0.115245,-0.128991,-35.837761,-51.632549,-26.386135
400,2086529630,94.324722,16.222046,-52.435562,0.337863,-0.443750,-0.327332,-50.377254,-51.813126,-24.977455
401,2086546297,92.991669,16.652811,-53.310200,0.284283,-0.238224,-0.276987,-65.247078,-51.920780,-23.683912
402,2086562964,91.514206,17.044586,-54.190628,0.212875,0.071921,-0.513813,-73.447990,-51.485645,-22.603352
403,2086579631,89.991310,17.401749,-55.072552,0.040759,0.078716,-0.576420,-75.818893,-50.860653,-21.864973
404,2086596298,88.488190,17.727039,-55.955097,-0.065133,0.278268,-0.663934,-74.320290,-50.262932,-21.286160
405,2086612965,87.095459,18.018930,-56.838116,0.056160,0.191119,-0.516416,-67.416878,-49.753418,-20.542856
406,2086629632,85.761261,18.282185,-57.722782,0.107711,-0.080249,-0.378719,-63.630589,-49.398079,-20.005323
407,2086646299,84.393570,18.520407,-58.609589,0.093326,-0.267399,-0.316043,-65.379578,-49.115978,-19.670914
408,2086662966,82.991707,18.736820,-59.496037,-0.073757,-0.179414,-0.218622,-67.235893,-48.711651,-19.541456
409,2086679633,81.540894,18.937372,-60.381050,-0.140304,-0.042395,-0.123338,-70.012489,-48.220863,-19.782991
410,2086696300,80.111229,19.124451,-61.261929,-0.191841,-0.082128,-0.342195,-68.658432,-47.578297,-20.143629
411,2086712967,78.870880,19.297668,-62.136547,-0.214416,-0.096141,-0.514754,-57.266087,-46.871609,-20.353363
412,2086729634,77.817154,19.458216,-63.011604,-0.178112,-0.306056,-0.243881,-45.915405,-46.604679,-20.536346
413,2086746301,76.767822,19.607977,-63.896091,0.136263,-0.503094,-0.105228,-45.327278,-46.857651,-20.862762
414,2086762968,75.645821,19.746233,-64.787704,0.194837,-0.359906,-0.038119,-49.415768,-46.988743,-21.162233
415,2086779635,74.460442,19.872671,-65.680801,-0.046100,-0.267395,-0.184719,-53.073215,-46.798187,-21.428883
416,2086796302,73.204971,19.985920,-66.578827,0.135417,-0.183789,-0.328167,-57.072205,-46.805908,-21.727194
417,2086812969,72.002602,20.083818,-67.477676,0.184937,-0.063746,-0.649403,-53.774536,-46.640972,-21.850901
418,2086829636,70.936043,20.161606,-68.383842,0.024983,0.255547,-0.664527,-45.397694,-46.968327,-21.746620
419,2086846303,69.951637,20.214287,-69.300995,0.152579,0.230379,-0.572976,-40.184761,-47.658772,-21.362314
420,2086862970,69.016235,20.239397,-70.224640,0.378584,0.012518,-0.687930,-37.074795,-48.220039,-20.730888
421,2086879637,68.159050,20.236071,-71.145187,0.221476,0.126977,-0.875362,-32.435688,-48.366692,-19.828142
422,2086896304,67.361641,20.197226,-72.063438,-0.014616,0.272719,-0.695354,-28.917942,-48.783501,-18.504457
423,2086912971,66.523842,20.117031,-72.985893,0.119005,0.002061,-0.593148,-31.307573,-49.738041,-17.014971
424,2086929638,65.647552,19.997269,-73.909721,0.104319,0.085227,-0.971581,-33.679901,-50.557880,-15.631021
425,2086946305,64.839874,19.836178,-74.825089,0.008255,0.261627,-0.967794,-29.864822,-50.984871,-13.937999
426,2086962972,64.087601,19.630196,-75.729141,-0.026188,0.345052,-0.796466,-26.930946,-51.443306,-11.949765
427,2086979639,63.275093,19.379696,-76.624046,0.103461,0.532763,-0.799895,-30.935781,-52.077618,-10.057087
428,2086996306,62.475193,19.081482,-77.505211,0.003350,0.750888,-0.857718,-30.694489,-52.632393,-7.922088
429,2087012973,61.749786,18.735744,-78.367271,-0.257272,0.631420,-0.930112,-26.877384,-52.998608,-5.638003
430,2087029640,61.043640,18.336811,-79.208061,-0.252162,0.312746,-0.619336,-26.444729,-53.498997,-2.967230
431,2087046307,60.219334,17.886049,-80.019257,-0.193061,-0.177227,-0.436015,-34.441429,-53.625088,-0.198642
432,2087062974,59.236324,17.385298,-80.789825,-0.425886,-0.537032,-0.536866,-45.083683,-53.246609,2.654181
433,2087079641,58.212685,16.840244,-81.509827,-0.959037,-0.413569,-0.637375,-48.815121,-52.313457,5.433365
434,2087096308,57.242504,16.254324,-82.176201,-1.211422,-0.180298,-0.720793,-46.930969,-51.224781,8.176706
435,2087112975,56.349648,15.630938,-82.795670,-1.167873,0.189535,-0.839600,-43.467384,-50.432846,10.642831
436,2087129642,55.631542,14.975601,-83.364868,-1.304501,-0.056814,-1.049383,-34.172958,-49.349079,13.086772
437,2087146309,55.242741,14.293923,-83.874092,-1.081182,0.193954,-1.046518,-15.708868,-47.595505,15.829512
438,2087162976,55.142555,13.592724,-84.324753,-0.994809,0.140192,-0.569555,0.406663,-45.611607,18.483120
439,2087179643,55.181385,12.869644,-84.714539,-0.920381,0.144748,-0.368361,7.587513,-43.519138,21.523563
440,2087196310,55.290134,12.131177,-85.047089,-0.784443,-0.458115,0.036427,10.750746,-41.316250,24.211435
441,2087212977,55.261383,11.381713,-85.331589,-0.996608,-0.550642,0.184989,1.661438,-39.399239,26.359320
442,2087229644,55.280754,10.630776,-85.554558,-1.175003,-0.486715,0.011159,3.627240,-36.508476,28.464069
443,2087246311,55.359314,9.889749,-85.713242,-1.312157,-0.453505,0.301421,6.323750,-33.052738,30.147947
444,2087262978,55.428070,9.161864,-85.811424,-0.959588,-0.466237,0.469812,5.017094,-29.636600,31.561016
445,2087279645,55.573689,8.457388,-85.838539,-0.964676,-0.413618,0.254598,8.906074,-25.316395,32.837772
446,2087296312,55.952042,7.781940,-85.789955,-1.254976,-0.007074,0.138938,22.211590,-20.467922,34.039261
447,2087312979,56.616512,7.142513,-85.662926,-1.142508,0.113408,0.459786,38.802425,-15.061232,35.019798
448,2087329646,57.399914,6.540661,-85.468849,-1.159692,0.055028,0.851325,45.542713,-10.019233,35.495472
449,2087346313,58.188007,5.980781,-85.211716,-1.144635,-0.124639,0.956744,45.532188,-4.978911,35.511078
450,2087362980,58.994415,5.468274,-84.892509,-0.790260,-0.433382,1.196754,46.404125,0.185278,35.087593
451,2087379647,59.670609,5.005997,-84.516510,-0.735502,-0.643382,1.618549,38.446430,5.121315,34.225773
452,2087396314,60.147247,4.597197,-84.086464,-0.783539,-0.632953,1.498132,26.373079,9.894040,33.021938
453,2087412981,60.598804,4.248793,-83.598778,-1.035477,-0.648840,1.109272,24.773190,14.969775,31.500549
454,2087429648,61.190838,3.960692,-83.044777,-1.204408,-0.504831,0.928199,33.081844,20.502522,30.135256
455,2087446315,61.989834,3.732838,-82.421722,-1.346083,-0.717651,0.960884,45.373318,26.243599,28.674265
456,2087462982,62.874352,3.554927,-81.736443,-1.179326,-1.485550,0.971249,50.401127,31.374228,27.355396
457,2087479649,63.737877,3.421964,-80.993500,-1.047593,-2.037042,1.214702,49.046413,36.105427,26.013830
458,2087496316,64.614937,3.326853,-80.188690,-0.844690,-1.925686,1.610187,49.728363,40.835941,25.026129
459,2087512983,65.736916,3.264951,-79.308266,-0.580968,-1.761447,1.484784,64.232719,46.237804,24.401379
460,2087529650,67.302673,3.235158,-78.343117,-0.459235,-1.375733,1.863368,90.615005,52.246071,23.560493
461,2087546317,69.179405,3.233968,-77.302719,-0.532058,-0.696331,2.691097,109.035179,57.785110,22.053288
462,2087562984,70.960228,3.255926,-76.215668,-0.599765,-0.016868,3.232665,103.111130,61.594620,19.842306
463,2087579651,72.538261,3.300494,-75.091644,-1.062301,0.243884,3.026367,90.780418,64.706116,17.431637
464,2087596318,74.112228,3.374216,-73.927383,-1.176993,0.690204,2.599742,90.330490,67.995865,14.659184
465,2087612985,75.838623,3.478854,-72.717224,-1.030212,0.927026,2.053822,99.202751,71.553604,11.616393
466,2087629652,77.657822,3.613102,-71.467369,-0.591621,0.633391,2.303629,104.472618,74.626801,8.212775
467,2087646319,79.424286,3.777986,-70.187828,-0.376390,0.865683,1.922747,100.999344,76.976524,4.424149
468,2087662986,81.038933,3.971924,-68.883118,-0.191666,1.066467,1.886526,91.549011,78.871681,0.687845
469,2087679653,82.540092,4.192491,-67.552696,0.174509,1.335068,1.152017,84.346855,80.623619,-2.819710
470,2087696320,83.995331,4.441164,-66.192719,0.030283,1.369066,1.019352,81.128731,82.486931,-6.366580
471,2087712987,85.471489,4.714835,-64.801712,0.312514,1.164072,0.384594,81.863930,84.282204,-9.798477
472,2087729654,87.061073,5.010678,-63.377819,0.387704,1.139245,0.215088,88.086594,86.037865,-13.249434
473,2087746321,88.716881,5.325123,-61.925438,0.511892,0.743931,-0.120065,91.447021,87.364258,-16.733721
474,2087762988,90.379120,5.655226,-60.450657,0.604649,0.164804,-0.345071,91.208145,88.172768,-20.184357
475,2087779655,91.940109,5.996940,-58.963612,0.609425,0.076820,-0.313851,84.546974,88.272346,-23.368282
476,2087796322,93.279854,6.345722,-57.475491,0.342121,0.340412,-0.835494,70.730927,87.667664,-26.021219
477,2087812989,94.499527,6.694318,-55.982323,0.798965,0.391445,-1.169004,62.950119,87.332588,-27.977867
478,2087829656,95.798004,7.033689,-54.475311,0.849720,0.249558,-2.309412,67.041008,87.530540,-29.408466
479,2087846323,97.198448,7.357903,-52.959454,0.756755,0.094089,-2.354948,72.570007,87.402344,-30.612143
480,2087862990,98.506706,7.669420,-51.452972,1.243276,0.394331,-1.345198,66.609573,86.169884,-31.831673
481,2087879657,99.451317,8.002422,-50.011047,2.803004,0.364867,0.736287,44.815338,81.488754,-34.184853
482,2087896324,99.853394,8.391240,-48.680576,3.624995,0.389217,0.607450,12.671677,73.935379,-37.323109
483,2087912991,100.083344,8.829645,-47.453289,2.673306,-1.240669,0.463631,2.694994,67.108238,-39.590794
484,2087929658,100.312836,9.310082,-46.290283,1.877032,-1.021428,-1.539947,2.690059,62.666561,-41.656807
485,2087946325,100.485367,9.824471,-45.157784,0.365202,-2.655425,-0.107566,-1.022056,60.282486,-43.540852
486,2087962992,100.713219,10.370914,-44.029625,1.423053,-1.308798,-2.327962,1.727092,59.417347,-45.578468
487,2087979659,101.124939,10.949842,-42.886719,1.252037,-1.635026,-1.549319,11.941181,59.532440,-47.968613
488,2087996326,101.785477,11.569118,-41.730225,1.097238,-1.176827,-1.830974,26.006968,59.258099,-51.032444
489,2088012993,102.546631,12.231664,-40.581856,0.123354,-1.374236,-1.578702,31.385199,57.465763,-54.171394
490,2088029660,103.335899,12.923614,-39.457539,0.052052,-1.861426,-1.171332,32.592934,54.803925,-56.311943
491,2088046327,103.978386,13.629829,-38.372784,0.564632,-2.064292,-1.916559,23.532606,51.477806,-57.233757
492,2088062994,104.420273,14.328574,-37.336193,1.173687,-2.158645,-2.084508,11.426122,48.152008,-56.556114
493,2088079661,104.662933,15.006665,-36.354755,0.783185,-1.415797,-2.906733,-0.409913,44.850582,-54.797592
494,2088096328,104.648865,15.665396,-35.452377,0.012367,-1.268833,-1.598361,-15.218738,40.436100,-52.562714
495,2088112995,104.348450,16.312849,-34.652035,-0.527325,-0.489885,-1.027485,-31.305325,34.886417,-50.282795
496,2088129662,103.913307,16.956631,-33.962444,-0.466528,0.264710,-0.551881,-38.000607,28.933453,-48.251656
497,2088146329,103.600037,17.593756,-33.372398,-0.434242,1.018729,-0.925708,-29.358818,23.665756,-46.284515
498,2088162996,103.318207,18.225431,-32.889652,0.107561,1.028318,-1.181505,-25.867069,17.905710,-44.387276
499,2088179663,102.760284,18.863064,-32.541386,0.486661,0.478137,-0.806120,-40.172512,10.593283,-42.853569
500,2088196330,101.641693,19.514021,-32.359127,0.917095,0.002068,-0.095282,-70.763901,1.767261,-41.471470
501,2088212997,100.141739,20.186914,-32.349018,1.337841,0.593221,-0.869218,-90.256889,-7.140953,-40.870209
502,2088229664,98.922539,20.868437,-32.468361,1.174316,0.962676,-1.633546,-70.698265,-13.455980,-40.334812
503,2088246331,98.309319,21.548393,-32.685112,0.649746,1.151804,-2.400409,-32.151737,-18.168108,-39.639736
504,2088262998,98.093590,22.216768,-32.998718,0.158887,0.873631,-2.077631,-5.996936,-23.070713,-38.320496
505,2088279665,98.090302,22.868347,-33.402016,-0.196862,0.708282,-1.469970,9.009868,-27.695097,-36.677593
506,2088296332,98.278801,23.498505,-33.878616,0.075849,0.583327,-1.171844,22.494471,-31.465483,-34.799686
507,2088312999,98.648560,24.103836,-34.406811,-0.342049,0.344606,-0.797088,34.899891,-34.088818,-32.770947
508,2088329666,99.152199,24.676422,-34.975986,-0.579222,0.183530,-0.541621,44.243938,-36.106586,-30.246582
509,2088346333,99.616219,25.203133,-35.582645,-0.138458,-0.032843,-0.175384,43.115635,-37.778854,-26.912027
510,2088363000,99.880310,25.676825,-36.230610,0.197227,-0.364472,0.409060,32.472366,-39.477112,-23.181044
511,2088379667,99.967018,26.088366,-36.919834,0.060304,-0.437079,0.952782,23.179785,-40.966221,-19.026655
512,2088396334,99.937080,26.428513,-37.653049,-0.351568,-0.594645,1.254732,17.594831,-42.450783,-14.399091
513,2088413001,99.750023,26.687433,-38.416252,-0.513625,-0.934909,1.727471,9.180586,-43.078178,-9.420034
514,2088429668,99.313080,26.859272,-39.198509,-0.572599,-1.317799,1.561694,-5.141617,-43.097321,-4.346120
515,2088446335,98.547966,26.949270,-40.003193,-0.662203,-1.534444,0.924221,-24.121891,-43.438053,0.231086
516,2088463002,97.553535,26.976076,-40.838623,-0.616165,-1.578625,-0.218077,-36.994324,-44.531063,3.545909
517,2088479669,96.490479,26.964174,-41.718246,-0.184252,-1.138619,-1.363638,-39.900497,-46.667164,5.338098
518,2088496336,95.505043,26.938560,-42.646057,-0.084391,-0.605217,-0.930305,-33.944756,-49.262390,5.591367
519,2088513003,94.663544,26.908541,-43.612053,-0.002182,0.069026,-0.266945,-24.294970,-51.385571,5.250105
520,2088529670,93.979294,26.877890,-44.599365,0.139103,0.405784,0.613231,-14.309517,-52.614479,4.690804
521,2088546337,93.381065,26.838108,-45.615685,0.164593,0.671167,1.177197,-8.396317,-54.206371,4.749446
522,2088563004,92.772438,26.785509,-46.690380,0.299373,0.966096,1.232667,-7.485643,-57.366787,5.116972
523,2088579671,92.104691,26.723410,-47.849873,0.597325,1.442190,0.546029,-8.805329,-61.969624,5.240878
524,2088596338,91.393463,26.657394,-49.098030,1.071653,1.622360,-0.416577,-9.095844,-66.825356,4.879714
525,2088613005,90.690681,26.587971,-50.434769,1.006291,1.643406,-1.039158,-6.295269,-71.677162,4.347535
526,2088629672,90.022469,26.511635,-51.857098,0.605402,1.622467,-0.778921,-2.021511,-76.372871,3.934620
527,2088646339,89.405220,26.429327,-53.356350,-0.161024,1.251770,-0.305923,2.981880,-80.609131,3.417793
528,2088663006,88.876335,26.338829,-54.916451,-0.211582,1.159404,-0.500919,9.780398,-83.985458,3.054769
529,2088679673,88.462585,26.242331,-56.517723,0.450413,1.013080,-0.687906,17.644516,-86.306648,2.675442
530,2088696340,88.099670,26.136292,-58.161419,0.600519,0.630168,-0.805902,21.661482,-88.703712,2.593279
531,2088713007,87.661850,26.010555,-59.867996,0.511364,0.254299,-0.880800,18.645008,-92.244530,3.026766
532,2088729674,87.027023,25.858051,-61.642696,0.561665,-0.109737,-0.633641,8.389414,-96.135078,3.592920
533,2088746341,86.164360,25.670771,-63.476192,0.546665,-0.273880,-1.035413,-4.034872,-99.619286,4.222087
534,2088763008,85.156090,25.452810,-65.351120,0.059388,-0.184029,-1.079993,-12.047129,-102.237808,4.248262
535,2088779675,84.081429,25.212770,-67.251945,-0.459945,0.152833,-0.661677,-15.772584,-104.033821,3.558697
536,2088796342,82.968758,24.959415,-69.162483,-0.808276,0.539533,-0.568664,-18.249304,-104.924866,2.285340
537,2088813009,81.833130,24.696871,-71.068390,-0.736378,0.666064,-0.283473,-20.208311,-105.011688,0.780918
538,2088829676,80.703743,24.425486,-72.964958,-0.742013,0.835884,-0.181889,-20.553095,-104.822235,-0.724010
539,2088846343,79.571114,24.137312,-74.868240,-1.343001,1.275120,0.463725,-21.085032,-105.562592,-1.898722
540,2088863010,78.417313,23.816277,-76.779884,-1.405136,2.736948,1.941368,-22.707121,-106.599808,-2.199544
541,2088879677,77.253975,23.443823,-78.667976,-0.928050,3.877780,2.547969,-24.479288,-106.212364,-1.116171
542,2088896344,76.058586,22.995861,-80.494644,-0.665771,4.513049,3.306846,-28.603172,-104.246422,1.824090
543,2088913011,74.701340,22.440826,-82.258072,-1.390018,5.099092,3.980287,-40.663857,-102.879135,6.520092
544,2088929678,73.077316,21.752211,-83.960037,-1.262923,5.593876,3.540627,-59.119194,-102.400833,12.383672
545,2088946345,71.135864,20.902439,-85.595360,-0.549884,5.539777,3.877972,-80.892685,-102.671242,19.398224
546,2088963012,68.949898,19.884693,-87.123749,0.909119,4.329559,3.413156,-99.292992,-101.661461,27.036934
547,2088979679,66.565598,18.704496,-88.495201,1.808883,2.545994,3.494880,-115.959335,-98.716263,35.136520
548,2088996346,63.835770,17.358660,-89.657028,3.491355,1.372197,5.098996,-142.305878,-94.072006,44.502892
549,2089013013,60.606380,15.836169,-90.585075,4.750436,1.106011,6.166834,-177.953110,-89.824615,54.961948
550,2089029680,56.978683,14.125623,-91.268639,5.788414,1.182860,7.205261,-207.161697,-87.108406,66.275314
551,2089046347,53.542068,12.237566,-91.671761,6.604316,1.737519,7.373180,-200.792465,-83.955338,78.700302
552,2089063014,51.285618,10.211577,-91.754143,4.671964,2.227088,9.108515,-134.555038,-78.033417,92.402962
553,2089079681,51.111378,8.075532,-91.521645,1.145995,2.070862,11.471514,-12.826642,-69.615051,107.546455
554,2089096348,54.437847,5.888694,-90.952057,-0.909418,0.537108,7.190708,195.248978,-52.404945,124.057724
555,2089113015,62.893948,3.702026,-89.950516,0.169158,-2.665705,3.193757,502.104248,-17.105486,142.372818
556,2089129682,74.498886,1.379060,-88.656525,-2.029785,-2.526473,6.146167,692.526306,21.672596,157.311447
557,2089146349,87.188599,-1.183834,-87.246826,-3.548935,-0.975653,5.219963,760.914734,59.191227,164.605957
558,2089163016,99.310410,-3.987065,-85.878349,-6.281294,1.007369,4.390801,730.686890,91.652008,162.550369
559,2089179683,110.039772,-6.940294,-84.663498,-7.868842,4.201109,3.544869,650.409058,115.317490,152.209305
560,2089196350,119.129974,-9.954278,-83.661652,-4.828712,3.090869,-0.729341,553.998474,129.523682,138.798035
561,2089213017,126.856712,-12.953705,-82.912437,-2.697453,3.257567,-1.345425,472.330383,135.143692,125.980507
562,2089229684,134.024277,-15.910422,-82.393250,0.116999,5.812615,-5.907102,437.642670,138.224884,114.442444
563,2089246351,141.274521,-18.809040,-82.045532,0.325604,7.100963,-6.905523,441.073700,142.156311,101.414642
564,2089263018,148.231049,-21.625084,-81.815567,-4.047097,7.393841,-6.448927,422.009583,145.685013,85.866112
565,2089279685,153.505997,-24.293463,-81.677994,-4.054679,5.388381,-7.249785,319.611847,143.754150,70.185287
566,2089296352,156.986023,-26.802574,-81.577141,-3.553642,4.359899,-5.495095,211.348679,139.180496,56.938950
567,2089313019,159.545547,-29.215275,-81.447670,0.122112,2.685160,-5.637034,157.182220,137.190811,46.079353
568,2089329686,161.760498,-31.576904,-81.233459,0.375560,2.960612,-4.832771,139.373978,137.548935,35.318890
569,2089346353,163.870010,-33.921005,-80.918808,0.119545,2.493896,-4.953478,136.764984,139.243149,25.208725
570,2089363020,165.579056,-36.239880,-80.528160,-0.563580,1.344308,-4.932842,116.005409,139.456512,16.968035
571,2089379687,167.321838,-38.549873,-80.082718,0.284730,-0.044669,-4.735603,120.795013,139.901993,10.640794
572,2089396354,169.463257,-40.858662,-79.589134,0.019274,-1.335109,-5.075852,147.390640,140.454941,4.360995
573,2089413021,171.805252,-43.149834,-79.038803,-0.437712,-1.594743,-4.991536,162.615112,139.810120,-3.037262
574,2089429688,174.077286,-45.401127,-78.439880,-0.773101,-2.216442,-5.390448,161.410507,137.385223,-10.136657
575,2089446355,176.196777,-47.591423,-77.800819,-0.874251,-3.275361,-5.561273,154.986954,133.342117,-16.362103
576,2089463022,178.179062,-49.709450,-77.093559,-0.673563,-3.786571,-5.573142,150.797287,128.448792,-22.964123
577,2089479689,179.980301,-51.744034,-76.260826,-0.592486,-3.603506,-5.131399,146.759125,122.699066,-30.858562
578,2089496356,-178.547607,-53.678139,-75.216888,-0.833686,-2.438115,-4.936478,138.165161,115.679962,-40.585155
579,2089513023,-177.685837,-55.479427,-73.879272,-1.111884,-2.214570,-5.242366,117.115547,106.595879,-51.226280
580,2089529690,-177.581985,-57.131542,-72.146072,-1.005121,-2.926890,-5.157992,92.765862,96.756966,-62.913712
581,2089546357,-178.383896,-58.638527,-69.942123,-0.317390,-4.230317,-4.267882,63.902096,87.971977,-74.607964
582,2089563024,179.952942,-60.018169,-67.266243,1.296131,-5.838829,-2.122465,38.309635,81.716438,-84.181389
583,2089579691,177.783997,-61.298893,-64.194916,2.955745,-7.473698,0.174240,30.506624,78.660744,-89.910309
584,2089596358,175.368866,-62.480434,-60.803566,3.682088,-6.963767,2.323227,34.561172,76.519547,-92.604927
585,2089613025,172.840652,-63.538307,-57.091599,4.338732,-5.506350,3.524477,46.748062,73.523689,-95.155937
586,2089629692,170.008209,-64.437904,-52.954361,3.368857,-3.880226,3.711035,53.113216,69.591019,-100.725471
587,2089646359,166.508102,-65.132965,-48.242188,2.759031,-2.290720,2.863553,45.754665,65.310036,-110.558388
588,2089663026,162.119431,-65.573181,-42.893101,2.008419,-1.952859,1.924171,28.361671,61.576431,-122.819313
589,2089679693,156.931091,-65.717339,-37.025352,1.423255,-1.703203,0.795443,9.418268,58.850872,-134.084473
590,2089696360,151.364395,-65.537247,-30.896259,2.129853,-1.347631,0.428261,0.960831,56.424198,-142.362518
591,2089713027,145.832611,-65.017021,-24.816235,1.493520,-0.727630,0.433893,-0.553730,52.841690,-147.558060
592,2089729694,140.564499,-64.154175,-18.989365,1.569215,-0.098621,-0.043245,-0.316076,48.424210,-152.220032
593,2089746361,135.700668,-62.967506,-13.521983,1.690438,0.593664,-1.666512,1.891785,44.465015,-157.355911
594,2089763028,131.211319,-61.478794,-8.455452,1.855789,1.036488,-2.157991,-0.406565,41.413742,-163.351395
595,2089779695,127.201225,-59.732784,-3.803919,2.925109,1.340068,-2.539857,2.544809,39.933842,-168.847656
596,2089796362,123.794083,-57.758312,0.446647,2.658957,2.186539,-2.889850,13.581088,38.948662,-174.383469
597,2089813029,120.904564,-55.565830,4.301148,1.978897,3.291312,-3.062947,19.827845,36.996716,-180.260620
598,2089829696,118.464973,-53.150677,7.802943,1.893668,2.857506,-3.551588,24.357477,34.618149,-187.662033
599,2089846363,116.295723,-50.506554,10.962847,1.644637,2.215219,-3.202926,18.877441,31.105515,-195.916351
600,2089863030,114.254044,-47.650402,13.771349,2.432891,2.228797,-2.870742,4.807492,26.667480,-203.264282
601,2089879697,112.555748,-44.646366,16.289198,4.813401,3.008125,-3.748694,7.018757,24.479912,-208.175888
602,2089896364,111.175522,-41.512920,18.564240,4.365052,3.489617,-2.738337,10.389456,22.539562,-212.828888
603,2089913031,109.908127,-38.208626,20.590258,3.585278,4.033293,-1.010870,1.833421,17.842764,-219.630646
604,2089929698,108.382500,-34.671494,22.289055,4.242031,3.805926,0.958394,-31.020981,7.901164,-228.630630
605,2089946365,106.297173,-30.844831,23.570683,3.440875,3.257930,6.264977,-83.530869,-6.654488,-239.728027
606,2089963032,103.650551,-26.714945,24.353394,2.157416,5.562561,9.815435,-136.192856,-24.206057,-251.332581
607,2089979699,100.842834,-22.337011,24.577684,1.825778,7.862817,10.679438,-162.892273,-43.688751,-260.634247
608,2089996366,98.768616,-17.827887,24.341965,1.091727,8.448646,10.589931,-129.369965,-59.076416,-265.675507
609,2090013033,99.455574,-13.217133,23.909563,-0.171127,7.820665,9.012913,34.091553,-68.388008,-270.535461
610,2090029700,102.336853,-8.280838,23.573763,4.272509,-4.771330,24.534370,168.812057,-75.319115,-288.481171
611,2090046367,102.683334,-2.855868,23.332685,8.495051,-10.881914,30.976883,19.172066,-84.477402,-316.013672
612,2090063034,101.332878,2.798201,23.097776,1.742300,1.058648,7.889593,-81.144997,-84.309517,-330.260437
613,2090079701,102.719009,8.351649,22.990860,-0.319201,0.524733,4.293038,83.530296,-75.623100,-325.941040
614,2090096368,107.363243,13.641936,23.054878,5.766899,-1.211678,5.879045,277.503784,-78.725266,-308.978241
615,2090113035,111.157684,18.707380,23.130844,7.512187,-2.512553,1.996822,226.027145,-96.143272,-289.803040
616,2090129702,112.912025,23.587631,23.146793,8.372791,-1.821105,0.360586,104.636551,-109.065887,-273.179779
617,2090146369,114.718971,28.198351,23.226965,4.832683,-0.301002,-10.493022,106.043846,-107.806557,-256.273376
618,2090163036,117.412811,32.512192,23.384130,1.914615,-0.954647,-10.585657,156.568405,-106.508217,-237.540482
619,2090179703,121.342987,36.501549,23.543404,-0.181365,-1.770648,-11.962317,230.074738,-110.688507,-213.922836
620,2090196370,125.614670,40.096447,23.689119,-0.990370,-3.002619,-12.787412,250.573227,-113.423401,-185.162109
621,2090213037,129.100098,43.242878,23.739798,-2.739724,-0.687231,-13.750870,206.820465,-112.921402,-152.863815
622,2090229704,131.410217,45.914562,23.647427,-4.494231,-2.640712,-10.725031,142.250656,-106.789505,-121.188637
623,2090246371,132.528336,48.211193,23.321869,-8.561775,-3.353197,-8.458010,81.163872,-102.237633,-94.926964
624,2090263038,132.778275,50.397888,22.765253,3.027065,-4.129776,-4.319159,40.106709,-105.099312,-83.074997
625,2090279705,133.132980,52.583828,22.029839,-2.919323,0.467637,-11.061234,55.610706,-109.672264,-78.607513
626,2090296372,133.987350,54.811909,21.069132,-5.124662,1.294865,-9.663389,97.506882,-117.052849,-74.679688
627,2090313039,134.925888,56.931313,19.881653,-0.886768,-0.651152,-6.923893,115.070274,-117.799156,-64.067520
628,2090329706,135.869141,58.866272,18.377117,-6.720699,0.737157,-8.428460,132.846405,-116.557968,-48.648651
629,2090346373,136.307220,60.640640,16.360901,-3.669477,-4.273022,-3.047432,130.567749,-119.166733,-31.184862
630,2090363040,135.285446,62.240837,13.622793,-0.990336,-5.379433,1.947933,82.790222,-123.772453,-11.861049
631,2090379707,132.710602,63.669247,9.975734,-7.059347,-0.593740,1.822351,40.232937,-131.265976,6.249601
632,2090396374,128.663940,64.929253,5.341263,-4.129749,-1.071887,4.676963,7.602463,-140.853134,20.109949
633,2090413041,123.034752,65.972946,-0.242972,-1.338433,-0.774301,4.508568,-33.117565,-149.604767,29.607447
634,2090429708,116.181915,66.724281,-6.587963,-3.697601,1.735602,1.281161,-62.566349,-155.135345,35.104404
635,2090446375,108.599480,67.146515,-13.427349,-3.366743,-0.323711,1.798753,-77.503990,-158.371902,36.655457
636,2090463042,100.767387,67.249481,-20.527073,-2.091036,-0.329400,2.115430,-77.344063,-161.330643,34.703388
637,2090479709,93.191063,67.049561,-27.610477,-2.305087,1.718784,0.442193,-63.040569,-162.415344,30.778145
638,2090496376,86.046043,66.567780,-34.499016,-0.958418,0.100321,0.007575,-48.908115,-163.018784,26.642342
639,2090513043,79.429214,65.827179,-41.059376,0.090055,0.716916,-0.087407,-36.998642,-163.269867,22.814201
640,2090529710,73.432335,64.849907,-47.275566,-1.239286,0.957833,-1.111957,-20.994654,-165.108612,19.306107
641,2090546377,68.024719,63.642666,-53.124088,-0.876213,0.368457,-0.740871,-8.546498,-167.904785,16.879602
642,2090563044,63.190228,62.203518,-58.522053,-0.328535,-0.101081,-1.047870,-1.838157,-170.000778,16.594427
643,2090579711,59.166775,60.548267,-63.374786,-1.309540,0.796251,-1.321870,14.016926,-170.167755,18.620365
644,2090596378,55.932766,58.680164,-67.679886,0.330256,0.945505,0.697394,28.622322,-170.491180,23.351088
645,2090613045,53.184479,56.577469,-71.456627,2.014722,1.344594,2.223104,26.323427,-172.107498,31.319553
646,2090629712,50.984787,54.258148,-74.681068,1.352175,3.737288,1.667044,27.121187,-172.265900,41.208805
647,2090646379,49.145580,51.722065,-77.383743,1.874822,3.554281,2.962426,18.938084,-172.664215,52.940426
648,2090663046,47.412270,48.973190,-79.600746,2.317706,4.393716,3.661557,-1.791633,-173.277573,65.560005
649,2090679713,46.015079,46.090187,-81.347321,-0.510265,5.716458,2.939001,-6.764607,-170.280106,76.377098
650,2090696380,45.052734,43.132465,-82.640015,0.812312,6.284298,3.648839,-3.515732,-163.904190,86.977356
651,2090713047,44.706623,40.141613,-83.445839,1.967367,6.039358,5.486839,11.085019,-152.855286,100.060814
652,2090729714,45.235142,37.105690,-83.766602,2.396245,5.422199,5.334924,43.420567,-139.705994,117.175873
653,2090746381,46.531158,33.979740,-83.628700,5.220899,3.205489,5.919150,72.612007,-125.936081,138.436066
654,2090763048,48.450226,30.706732,-83.117470,4.865423,3.317871,5.883135,98.359444,-113.802673,161.404816
655,2090779715,52.489178,27.211121,-82.353973,2.295089,6.109210,5.221461,219.706696,-102.786835,186.455124
656,2090796382,57.029671,23.236086,-81.752586,-3.430075,3.245193,16.974529,256.550690,-111.151352,212.864578
657,2090813049,60.447422,18.814627,-81.371475,-1.868731,6.042969,8.987135,196.383118,-119.572746,237.099884
658,2090829716,67.320137,14.225334,-80.758118,1.937460,0.124415,-4.393481,401.300262,-89.664391,262.190857
659,2090846383,76.411049,9.528012,-80.007004,-8.086461,-4.612892,10.466024,535.485962,-45.866173,281.121124
660,2090863050,87.249718,4.784933,-79.183876,-5.522548,-0.683735,3.941287,643.450745,8.146145,288.324524
661,2090879717,99.658676,0.037233,-78.340584,-2.702102,-1.705521,0.705606,741.668091,67.905029,281.055267
662,2090896384,112.593735,-4.655123,-77.608337,-7.557720,-0.843327,5.422872,777.151794,120.844009,257.972656
663,2090913051,124.663521,-9.170527,-77.102150,-4.739500,3.292064,0.906871,727.230164,156.833374,222.863663
664,2090929718,135.549881,-13.438087,-76.819412,-4.423226,5.852517,-0.847112,656.002502,178.260208,184.446426
665,2090946385,145.897995,-17.454258,-76.687485,-4.649842,8.031747,-3.482482,622.567566,191.995026,145.822159
666,2090963052,155.376953,-21.187063,-76.665428,-3.709826,7.523408,-5.328461,568.828186,196.447586,107.779709
667,2090979719,163.604568,-24.626125,-76.702171,-3.497932,5.146138,-5.371284,492.533691,193.176743,73.111916
668,2090996386,170.077606,-27.783352,-76.723389,-3.178943,2.612973,-7.351940,387.629364,184.773895,43.058044
669,2091013053,175.095535,-30.654890,-76.598366,-2.801572,4.009138,-4.836888,304.590546,172.225388,14.489485
670,2091029720,179.520279,-33.166344,-76.068672,-8.315093,-0.261519,-6.573972,282.191833,152.322693,-21.169395
671,2091046387,-178.757294,-35.552235,-75.344650,4.198227,-3.709156,-11.985917,127.836525,143.410568,-38.111374
672,2091063054,-178.622055,-37.801376,-74.435951,-1.893251,-0.805107,-6.969053,40.655384,134.379440,-48.112541
673,2091079721,-178.333923,-40.061661,-73.338326,2.982071,-2.632779,-7.994753,58.654366,134.674393,-56.123146
674,2091096388,-178.292877,-42.240891,-72.097702,1.224336,-4.419933,-9.067677,51.416420,129.494110,-61.190804
675,2091113055,-178.656906,-44.326077,-70.720802,-0.672775,-5.551769,-7.306458,34.766830,123.889030,-64.760757
676,2091129722,-179.353302,-46.302254,-69.210114,1.172203,-5.388492,-6.769185,22.629950,117.843903,-67.086510
677,2091146389,179.794693,-48.158516,-67.567627,1.866016,-6.384834,-5.908816,21.184879,111.486557,-68.634071
678,2091163056,178.940277,-49.913078,-65.728645,0.873535,-6.031902,-4.916593,32.006596,106.401131,-72.448387
679,2091179723,178.024216,-51.549747,-63.624744,0.564655,-4.246508,-3.744967,42.711010,100.583076,-78.538033
680,2091196390,176.876190,-53.053635,-61.189400,0.818480,-3.634380,-3.319687,46.678223,94.396217,-86.510620
681,2091213057,175.221283,-54.392521,-58.361549,0.157385,-3.533819,-2.119688,37.426247,87.311569,-95.871330
682,2091229724,172.871597,-55.545586,-55.091782,0.642190,-4.157580,-1.756869,19.601509,80.722694,-106.073494
683,2091246391,169.889832,-56.496998,-51.389149,1.992875,-4.915161,-0.708148,5.253715,75.254517,-115.433296
684,2091263058,166.359024,-57.239342,-47.295757,1.590656,-4.630095,0.705132,-6.243300,71.389084,-123.418968
685,2091279725,162.339996,-57.759453,-42.889244,2.195393,-4.036419,1.340796,-18.225868,68.520996,-129.573578
686,2091296392,158.033478,-58.050728,-38.281464,2.865067,-3.067551,1.455556,-24.249622,66.363564,-133.474289
687,2091313059,153.550079,-58.122787,-33.541122,2.042596,-2.589773,1.669397,-27.653217,65.710457,-136.557526
688,2091329726,148.910736,-57.968369,-28.700598,1.674421,-1.792901,1.998215,-32.015430,65.959328,-140.390915
689,2091346393,144.279358,-57.584187,-23.811434,1.972741,-1.264144,1.588751,-29.797155,66.967659,-144.463684
690,2091363060,139.748291,-56.965096,-18.924536,0.450512,-2.196345,1.550844,-25.273159,68.371475,-148.988312
691,2091379727,135.227478,-56.094147,-14.142590,-0.455493,-2.395910,1.827674,-31.991657,68.484634,-153.135330
692,2091396394,130.891083,-54.998287,-9.582743,-0.032983,-3.351562,1.485929,-34.664749,68.268372,-154.889450
693,2091413061,126.908348,-53.716652,-5.300091,0.049992,-4.019470,1.621957,-30.218981,68.296959,-155.036514
694,2091429728,123.365211,-52.277996,-1.361570,0.319559,-1.857539,1.908675,-23.946167,66.659737,-153.598755
695,2091446395,120.299057,-50.709709,2.236671,0.402805,-1.363670,1.716487,-15.101520,64.588501,-151.996048
696,2091463062,117.605042,-49.024315,5.548681,0.877740,-1.055507,1.860368,-9.791582,63.136639,-151.648483
697,2091479729,115.206520,-47.209969,8.643565,0.221440,-0.473433,1.641412,-5.743900,62.620495,-153.799545
698,2091496396,113.065964,-45.270012,11.535106,1.386387,1.305027,1.036430,-3.210975,61.902264,-156.456238
699,2091513063,111.147934,-43.214062,14.218617,2.172256,2.228849,1.597433,-2.833681,60.439034,-158.880905
700,2091529730,109.379219,-41.049450,16.679411,2.508454,2.461682,3.288752,-7.169415,57.733978,-160.970901
701,2091546397,107.720474,-38.778988,18.905375,4.676707,2.701370,4.669992,-13.927860,53.778049,-162.977982
702,2091563064,106.113495,-36.417439,20.855320,5.031015,4.754749,6.784430,-25.134306,47.450542,-163.807022
703,2091579731,104.367462,-33.976997,22.463861,4.414659,6.433631,8.075211,-49.239216,37.606327,-163.345413
704,2091596398,102.340080,-31.480391,23.696920,3.649077,7.310251,8.119429,-81.767334,25.978098,-161.514709
705,2091613065,100.003273,-28.975496,24.571495,1.858878,6.062052,7.209839,-113.936386,15.411240,-157.681046
706,2091629732,97.761932,-26.552631,25.133411,-0.008908,5.701043,2.749343,-118.953835,7.103825,-149.719376
707,2091646399,96.778519,-24.288443,25.472637,-0.857190,4.880249,-0.667649,-50.496319,1.144495,-138.584045
708,2091663066,98.351410,-22.106731,25.786423,1.091925,2.946421,2.081117,101.502182,0.032743,-133.558578
709,2091679733,100.956696,-19.793066,26.194073,2.487580,-2.223807,11.597845,164.744614,-0.666989,-142.235672
710,2091696400,102.656960,-17.282515,26.618101,2.634283,1.216871,7.026365,109.805618,-7.153019,-153.939270
711,2091713067,103.898682,-14.665472,26.982882,1.609272,1.546762,1.574306,80.224968,-15.552493,-159.237305
712,2091729734,105.227730,-12.006763,27.300362,0.863675,-3.110840,3.177410,83.824577,-22.160122,-160.657501
713,2091746401,107.178261,-9.360321,27.597109,1.639781,-1.782677,0.431163,120.028198,-27.528126,-158.959030
714,2091763068,109.873787,-6.769064,27.883411,0.090907,-1.312827,0.123920,163.840210,-33.333908,-154.430527
715,2091779735,113.138687,-4.258406,28.172676,-0.274147,-2.203175,-0.366194,197.259842,-39.252129,-148.091293
716,2091796402,116.452339,-1.816881,28.459513,1.090114,-3.404021,0.621758,199.439606,-45.972080,-141.784134
717,2091813069,119.514229,0.544056,28.739111,0.652921,-2.382679,-0.713267,183.637009,-51.828732,-134.537537
718,2091829736,122.189201,2.820674,29.015368,1.289590,-2.856596,-0.562501,159.761688,-56.025814,-127.311928
719,2091846403,124.282356,5.016609,29.277853,1.397221,-2.757300,-0.718277,124.301125,-59.299156,-120.354027
720,2091863070,125.582199,7.150203,29.510778,1.823131,-2.474369,-0.993649,76.329453,-62.153130,-114.435242
721,2091879737,126.233566,9.235299,29.714890,2.304521,-2.648114,-0.900129,37.184555,-63.810730,-109.962799
722,2091896404,126.443649,11.269759,29.899014,1.556654,-2.148218,-1.870008,10.517386,-63.837994,-106.297935
723,2091913071,126.473793,13.242734,30.078510,1.195351,-1.338900,-1.465157,-0.577352,-62.146450,-102.993729
724,2091929738,126.582367,15.139492,30.270924,0.830538,-0.832803,-2.613628,3.596917,-59.013916,-99.644989
725,2091946405,126.955681,16.949183,30.483551,0.267991,-0.089197,-3.051324,18.793137,-55.445133,-95.856102
726,2091963072,127.800873,18.654507,30.727388,-0.049999,0.053555,-3.438975,46.155216,-51.324013,-91.301804
727,2091979739,129.026947,20.255684,30.994497,-0.043141,-0.234050,-2.944612,68.142838,-48.137177,-86.200310
728,2091996406,130.335587,21.769342,31.266830,0.518257,-0.826106,-1.865068,72.576271,-46.546486,-81.164902
729,2092013073,131.501831,23.215837,31.533443,0.604365,-1.010101,-1.787621,63.782337,-45.980946,-76.789116
730,2092029740,132.431763,24.606209,31.790730,0.578892,-1.029332,-1.684742,49.477055,-45.598743,-72.989899
731,2092046407,133.106766,25.946125,32.036839,0.301268,-0.832627,-2.000733,34.144817,-45.100990,-69.609161
732,2092063074,133.575989,27.237019,32.273293,-0.058235,-0.769769,-2.265482,21.760212,-44.245197,-66.561592
733,2092079741,133.952255,28.479626,32.495964,-0.510511,-0.694161,-2.422116,16.296234,-43.350380,-63.535015
734,2092096408,134.315872,29.673092,32.695908,-0.767730,-0.727759,-2.512847,15.953722,-42.643040,-60.207359
735,2092113075,134.691177,30.822008,32.858898,-0.617477,-0.715152,-2.531796,17.560236,-42.599815,-56.595024
736,2092129742,135.084183,31.937996,32.977051,-0.352988,-0.617917,-2.544717,19.859653,-43.266640,-53.213596
737,2092146409,135.459946,33.034153,33.035942,-0.077407,-0.449785,-2.564699,20.621996,-44.925495,-49.900475
738,2092163076,135.737625,34.137428,33.019711,0.404018,-0.185404,-2.675500,17.173538,-48.159962,-47.233734
739,2092179743,135.768417,35.286861,32.893303,0.847249,0.016123,-2.801601,6.143256,-54.052410,-45.154755
740,2092196410,135.363876,36.526215,32.611557,1.083752,-0.414360,-2.420662,-14.380586,-62.985062,-43.790455
741,2092213077,134.480133,37.886162,32.127705,0.234444,-0.607341,-2.614991,-35.488174,-74.289452,-42.968372
742,2092229744,133.713577,39.351505,31.445328,-0.715304,0.328707,-3.203764,-20.457998,-84.446671,-42.404720
743,2092246411,133.574905,40.882500,30.591734,-0.606581,0.890530,-3.711385,24.646797,-92.032921,-40.960251
744,2092263078,133.888397,42.446068,29.577820,0.242983,0.977461,-3.744014,59.195316,-97.991653,-37.885288
745,2092279745,134.226578,44.005592,28.412300,1.191319,0.378806,-3.499537,68.116554,-102.002243,-33.320839
746,2092296412,134.279465,45.531239,27.087696,1.598606,-0.356569,-3.213981,59.066795,-104.623260,-27.707125
747,2092313079,133.944016,47.010937,25.577454,1.031993,-2.331565,-3.233066,45.275089,-107.106010,-21.668810
748,2092329746,133.227264,48.444782,23.847647,-0.194310,-2.888890,-2.657731,33.724380,-110.211311,-15.716342
749,2092346413,132.162781,49.826160,21.881147,-0.597911,-2.707052,-1.938104,25.304733,-113.250504,-10.099354
750,2092363080,130.784103,51.148270,19.677177,-0.694444,-2.276008,-1.484076,19.246683,-115.858780,-5.241183
751,2092379747,129.110977,52.409409,17.231382,-0.515561,-1.802292,-1.041817,14.852994,-118.459427,-1.235567
752,2092396414,127.112488,53.611938,14.532792,-0.350150,-1.536935,-1.000956,9.372132,-121.437981,1.837711
753,2092413081,124.734047,54.749802,11.546115,-0.976410,-1.640790,-1.455767,2.554951,-125.222656,4.724620
754,2092429748,121.953278,55.806480,8.242175,-1.627220,-1.790043,-1.465360,-3.961137,-129.397995,7.587258
755,2092446415,118.814651,56.758701,4.623420,-2.092665,-1.789990,-0.790716,-7.765067,-133.067123,10.174191
756,2092463082,115.398750,57.578121,0.727926,-2.094795,-1.825840,0.042687,-8.610785,-135.378647,12.487245
757,2092479749,111.766922,58.240551,-3.379544,-2.136250,-1.402074,0.682631,-9.171095,-136.044891,14.476943
758,2092496416,107.958046,58.733624,-7.665486,-2.958151,-1.219712,1.018097,-9.351144,-136.597626,16.383268
759,2092513083,103.982689,59.045921,-12.118614,-3.279406,-0.756758,1.360557,-9.819597,-137.985580,18.522959
760,2092529750,99.873360,59.155136,-16.716539,-3.193975,0.069181,1.758739,-9.894171,-140.053802,21.447157
761,2092546417,95.707794,59.035530,-21.399220,-2.532563,0.593538,1.782597,-8.927772,-142.071960,25.270227
762,2092563084,91.557106,58.663090,-26.085463,-1.929254,0.483988,1.780392,-8.477298,-143.806976,30.136585
763,2092579751,87.488220,58.020912,-30.701431,-2.183566,0.339523,1.396914,-8.461893,-145.738022,35.950394
764,2092596418,83.536591,57.099876,-35.153931,-1.773436,0.379200,1.258516,-11.714188,-147.241104,42.527824
765,2092613085,79.731133,55.892254,-39.339622,-1.008489,0.446404,1.266816,-18.991652,-147.748276,50.180153
766,2092629752,76.079193,54.395645,-43.196823,-0.365984,-0.639682,1.652088,-29.290478,-148.197800,58.766224
767,2092646419,72.557396,52.607525,-46.691151,1.216746,-0.791146,2.090550,-42.851044,-149.100861,68.262367
768,2092663086,69.181160,50.538532,-49.767994,2.286240,-0.139260,2.444919,-58.045372,-149.132080,78.349968
769,2092679753,66.012444,48.216007,-52.395714,2.778910,0.186514,2.855796,-70.568214,-148.066971,88.369942
770,2092696420,63.241692,45.683376,-54.555393,2.415099,0.038945,2.831488,-71.701576,-145.098907,98.041229
771,2092713087,61.195847,42.988670,-56.242676,2.376998,0.435406,2.847623,-52.187557,-139.483871,107.932785
772,2092729754,60.122002,40.174286,-57.482750,2.672953,0.477494,3.364819,-15.281340,-131.322601,118.559860
773,2092746421,59.794777,37.252003,-58.365681,1.964662,0.431796,4.882895,13.221132,-123.628380,129.710220
774,2092763088,59.875954,34.215309,-59.004242,1.332730,0.824530,6.307304,26.936010,-118.511040,140.521332
775,2092779755,60.473198,31.069387,-59.455029,0.798641,1.210911,5.433133,50.079842,-113.707680,151.053696
776,2092796422,62.516434,27.833014,-59.734924,0.415785,3.006531,4.139036,130.456879,-105.599121,162.312454
777,2092813089,66.688431,24.465313,-59.981586,-4.380004,0.030061,8.793690,256.373840,-98.775368,175.548981
778,2092829756,72.484795,20.955141,-60.188679,-1.433735,5.070504,6.458174,352.108887,-84.323013,192.184509
779,2092846423,80.413971,17.292461,-60.280640,1.359753,1.220256,4.610554,477.011078,-56.710133,211.375000
780,2092863090,89.199371,13.461083,-60.357883,-4.631204,-2.457677,8.614496,527.744690,-25.389082,227.556610
781,2092879757,98.020889,9.488473,-60.483974,-5.380484,1.844816,6.300419,530.231873,7.523595,237.394150
782,2092896424,107.064568,5.426366,-60.686150,-5.038307,1.429578,3.304877,543.658875,41.157810,239.631622
783,2092913091,116.152763,1.350839,-61.018555,-6.768089,1.919747,3.356413,545.943481,71.560188,233.811264
784,2092929758,124.825615,-2.645075,-61.533939,-4.761544,4.318830,0.447926,519.605225,95.078255,221.449387
785,2092946425,132.840759,-6.485667,-62.227695,-4.946562,4.154658,-0.441748,477.236237,112.306252,204.681137
786,2092963092,140.622177,-10.154387,-63.034431,-3.693339,4.815889,-3.084621,459.575134,127.660324,184.914871
787,2092979759,148.421616,-13.658124,-63.877754,-2.889216,3.872122,-4.469989,457.252838,142.749146,161.493317
788,2092996426,156.032150,-16.992001,-64.695381,-3.117567,3.048786,-4.054903,443.428986,155.305252,134.200577
789,2093013093,162.665100,-20.127428,-65.428856,-3.736038,2.163601,-5.302041,383.791138,161.724854,104.454796
790,2093029760,167.328873,-23.034046,-66.015038,-4.399887,0.992634,-5.536428,266.789124,160.389679,75.759705
791,2093046427,169.854126,-25.737804,-66.373718,-2.576810,-0.003747,-5.890563,142.609344,155.550751,50.312344
792,2093063094,170.623215,-28.297386,-66.433640,-1.247445,-0.771084,-6.467170,44.543686,151.218185,28.205124
793,2093079761,170.596634,-30.811432,-66.125427,0.780210,-0.393071,-6.297132,7.578181,151.848969,7.764015
794,2093096428,171.114426,-33.354504,-65.445915,2.450228,-0.857061,-6.710743,52.756634,156.529587,-10.836986
795,2093113095,171.926453,-35.867764,-64.473846,1.519715,-1.373679,-6.315803,81.854431,156.600296,-26.243711
796,2093129762,172.502151,-38.242081,-63.309269,0.118705,-1.644719,-6.115256,76.638588,149.052673,-36.969646
797,2093146429,172.599701,-40.407230,-62.006062,-0.963094,-2.831898,-6.126431,55.395763,136.985077,-44.150452
798,2093163096,172.361008,-42.380230,-60.548290,-1.235378,-4.124532,-5.914167,43.517601,126.250259,-50.561462
799,2093179763,172.030167,-44.200485,-58.890507,-0.492839,-4.562314,-5.398880,48.370613,118.288361,-57.872318
800,2093196430,171.548981,-45.885910,-57.000095,-0.152779,-4.483694,-5.255053,51.425922,111.744987,-65.833496
801,2093213097,170.850769,-47.438290,-54.853626,0.201331,-3.775413,-4.998286,51.819729,105.729980,-74.031586
802,2093229764,169.874573,-48.849876,-52.441978,0.272129,-3.383257,-4.092144,49.249432,99.781105,-81.925613
803,2093246431,168.506210,-50.100594,-49.738014,-0.418066,-4.500426,-2.825964,41.272717,93.565063,-90.375046
804,2093263098,166.653366,-51.159554,-46.738548,0.334132,-4.798390,-1.157033,28.026436,86.640564,-98.691261
805,2093279765,164.357483,-52.014359,-43.483059,1.099207,-4.814938,0.164433,15.383188,80.017639,-105.507225
806,2093296432,161.575867,-52.680077,-39.957680,1.133485,-5.123588,0.456923,0.669758,75.973885,-112.667595
807,2093313099,158.388382,-53.171597,-36.183804,2.151827,-3.726424,1.237699,-10.469140,74.311035,-118.962212
808,2093329766,154.983368,-53.507626,-32.182400,2.733504,-2.707906,1.495559,-11.579010,75.074417,-124.457085
809,2093346433,151.403992,-53.692268,-27.976295,2.237809,-2.584960,2.025199,-11.498467,77.211380,-129.469513
810,2093363100,147.733490,-53.703091,-23.609159,2.286801,-2.064078,2.134616,-8.912587,78.885139,-134.233566
811,2093379767,144.001251,-53.504436,-19.163898,1.597731,-1.526530,2.637430,-9.091568,78.658066,-138.488937
812,2093396434,140.235657,-53.081078,-14.698235,0.914459,-1.516380,2.265908,-10.959995,78.001053,-142.807495
813,2093413101,136.415375,-52.430649,-10.276606,0.868789,-1.794297,1.426498,-17.836935,77.309898,-146.675140
814,2093429768,132.631958,-51.560795,-5.965466,0.656900,-1.457613,1.318160,-22.982994,76.647049,-149.677719
815,2093446435,128.989380,-50.502220,-1.802920,1.298851,-1.140623,1.175278,-24.156029,77.051361,-151.499496
816,2093463102,125.558983,-49.285507,2.196525,1.975879,-1.595151,0.945198,-22.053331,78.477264,-152.501877
817,2093479769,122.399147,-47.933620,6.008672,2.770212,-1.424500,1.535466,-17.747070,79.734871,-152.580338
818,2093496436,119.589455,-46.459461,9.615499,3.411637,-0.886497,1.969025,-9.541295,80.145126,-152.355240
819,2093513103,117.189819,-44.873760,13.007684,3.603703,-0.159534,1.928132,1.887359,79.512367,-152.170425
820,2093529770,115.225853,-43.167915,16.185659,3.326235,0.105223,2.374907,14.961029,77.427841,-153.257339
821,2093546437,113.552818,-41.320526,19.132786,2.695736,1.178715,2.296437,18.809414,73.055069,-155.914841
822,2093563104,112.028786,-39.312366,21.839748,2.258750,1.658294,2.533659,13.962876,67.110718,-159.995163
823,2093579771,110.507996,-37.141453,24.293749,2.702738,2.362642,2.857719,0.187640,60.165989,-164.315567
824,2093596438,108.848999,-34.816505,26.480223,3.347553,2.252681,3.888567,-22.134460,52.628689,-168.123825
825,2093613105,107.026253,-32.375912,28.353600,4.009693,4.526382,3.807108,-46.824928,43.626335,-169.235916
826,2093629772,105.201103,-29.857964,29.880796,3.901322,5.410172,4.721772,-61.822502,33.101505,-168.084244
827,2093646439,103.505295,-27.279108,31.053688,2.471234,6.711646,5.543989,-67.781319,21.209501,-166.488327
828,2093663106,102.525032,-24.654778,31.902882,1.501488,6.754863,5.028249,-36.246410,8.894966,-165.082214
829,2093679773,103.502754,-21.975243,32.545135,1.219362,7.916344,4.347592,74.098671,-1.962853,-166.039108
830,2093696440,106.229736,-19.091766,33.166611,2.821483,0.594758,10.740044,176.786804,-10.857265,-177.693924
831,2093713107,107.988968,-15.856383,33.786766,5.094175,-3.139104,15.872114,116.842201,-23.425968,-197.507019
832,2093729774,107.533974,-12.320778,34.270599,4.001719,2.638345,8.600489,-19.993557,-38.152412,-212.151291
833,2093746441,106.031570,-8.634840,34.563171,2.002171,0.521065,5.260111,-86.683746,-47.579121,-218.346848
834,2093763108,105.568115,-4.931498,34.775551,1.830255,-2.986153,4.487342,-26.046026,-48.549404,-218.902664
835,2093779775,106.676857,-1.285717,34.974098,1.384809,-1.324328,2.170329,67.443069,-49.528137,-215.098236
836,2093796442,108.774773,2.279081,35.176392,4.213182,-3.625012,5.375631,126.047661,-53.767452,-209.091644
837,2093813109,111.628349,5.743495,35.409782,2.654374,-2.624324,1.346407,170.575500,-58.881615,-201.590393
838,2093829776,114.634247,9.110224,35.684517,4.273858,-4.995450,1.022876,178.612701,-64.536583,-193.882431
839,2093846443,117.716881,12.347070,36.023354,2.180378,-2.865477,-2.169088,181.652481,-67.947525,-184.815216
840,2093863110,120.815323,15.442596,36.439262,2.596733,-2.341925,-3.263534,180.438675,-69.857910,-175.582397
841,2093879777,123.804787,18.380989,36.923244,1.905975,-1.783072,-4.188057,171.484955,-70.935417,-165.583725
842,2093896444,126.605988,21.158609,37.464905,0.967182,-1.209310,-5.161214,157.669388,-71.259483,-155.542206
843,2093913111,129.164841,23.771364,38.047520,1.233938,-1.321504,-5.118983,140.768753,-70.932106,-145.298141
844,2093929778,131.365463,26.231508,38.643257,1.048336,-0.750129,-5.663629,117.534554,-70.827797,-135.311020
845,2093946445,133.119644,28.550207,39.224976,1.151958,-0.710231,-5.780775,89.792030,-70.717644,-125.568192
846,2093963112,134.510010,30.735264,39.765366,0.268044,-0.179427,-6.409081,67.977753,-70.551277,-115.858246
847,2093979779,135.566879,32.795410,40.237007,-0.523846,-0.154458,-7.017570,49.084942,-70.566612,-106.112907
848,2093996446,136.325653,34.739124,40.606209,-0.918521,-0.369678,-7.516189,33.751038,-71.095123,-96.050110
849,2094013113,136.865082,36.576294,40.837399,-1.433956,-0.224130,-8.148786,24.783831,-72.411606,-85.643036
850,2094029780,137.167725,38.335659,40.890221,-1.304319,-0.407680,-8.181381,16.697241,-75.561287,-75.496643
851,2094046447,136.917404,40.073212,40.705307,-1.224072,-0.208547,-7.867256,-7.574103,-82.192398,-66.412079
852,2094063114,136.313828,41.831871,40.259369,-1.875663,0.455687,-7.980216,-18.282328,-90.586311,-59.431355
853,2094079781,135.937653,43.623257,39.561794,-1.570355,0.644937,-7.621703,6.174032,-98.799072,-53.938747
854,2094096448,135.961700,45.453251,38.657139,0.131021,0.041493,-5.746102,39.810127,-105.827332,-50.118637
855,2094113115,136.129898,47.310699,37.615917,1.594297,-0.290752,-3.929073,55.585670,-110.157028,-47.902649
856,2094129782,136.153381,49.167927,36.484322,1.239448,-0.932186,-3.896029,52.301376,-111.701691,-46.186211
857,2094146449,135.895706,51.010937,35.240448,-0.580286,-2.474227,-3.750412,42.016342,-112.843094,-43.907944
858,2094163116,135.353149,52.841793,33.814472,-3.427468,-2.730402,-3.810134,35.016499,-115.409271,-40.679565
859,2094179783,134.611526,54.671070,32.155426,-3.595209,-2.581215,-2.956576,35.977909,-119.171555,-37.552589
860,2094196450,133.738571,56.503899,30.246908,-2.362244,-2.207237,-2.392001,42.263897,-122.971848,-35.248341
861,2094213117,132.770599,58.320206,28.086132,-1.859754,-1.841076,-1.987770,51.312981,-125.432945,-32.963970
862,2094229784,131.623581,60.095066,25.615946,-1.977443,-2.991146,-1.434323,58.631840,-127.620735,-29.346588
863,2094246451,130.152283,61.804497,22.730238,-2.834885,-4.217130,-0.437684,63.211784,-130.550613,-23.898289
864,2094263118,128.226471,63.412632,19.352266,-2.755126,-3.962791,0.591074,64.530098,-133.043015,-17.229641
865,2094279785,125.735710,64.881241,15.435205,-1.868629,-3.495542,1.095227,62.182652,-134.645279,-10.082379
866,2094296452,122.533829,66.180664,10.921043,-1.755172,-3.682986,1.727320,54.538380,-136.344315,-2.908902
867,2094313119,118.486160,67.282509,5.727030,-2.249790,-3.807876,2.746683,43.565918,-139.331390,4.225548
868,2094329786,113.539520,68.145966,-0.165978,-2.792308,-3.200688,3.582294,30.509014,-142.890411,10.936304
869,2094346453,107.772942,68.714882,-6.660194,-2.496372,-2.525339,3.947860,16.515694,-145.720245,17.284658
870,2094363120,101.400093,68.929535,-13.538470,-1.451246,-1.674805,3.644410,2.601359,-147.154785,23.768005
871,2094379787,94.666672,68.760139,-20.559994,-0.993070,-1.155183,3.120939,-10.965165,-148.754059,29.972729
872,2094396454,87.801971,68.195007,-27.505463,-0.228487,-0.563739,3.786278,-24.066647,-151.747726,35.832634
873,2094413121,81.037560,67.236908,-34.144321,0.581784,0.671630,4.126147,-37.138721,-155.564804,41.150814
874,2094429788,74.612976,65.895737,-40.252232,1.247268,1.816704,3.421665,-49.105999,-159.102158,46.539803
875,2094446455,68.675072,64.209282,-45.665859,1.534716,1.622368,2.992959,-61.647610,-161.610641,51.525078
876,2094463122,63.303593,62.229778,-50.318741,1.092068,1.851966,2.794482,-72.977028,-162.981308,55.957687
877,2094479789,58.596817,60.032249,-54.188156,-0.013929,2.185362,2.476220,-79.030449,-161.806885,59.514259
878,2094496456,54.627079,57.682732,-57.314442,-0.603266,2.249362,2.477702,-77.606575,-158.405518,63.031895
879,2094513123,51.459679,55.242641,-59.788654,-0.507285,2.465007,2.706943,-66.289986,-153.423767,66.428246
880,2094529790,49.198792,52.752850,-61.696259,-0.330679,2.379751,2.638848,-43.070984,-147.034927,70.808647
881,2094546457,47.900246,50.237392,-63.114529,0.721989,2.389410,1.985142,-11.350802,-139.542313,76.849541
882,2094563124,47.298153,47.700954,-64.135483,0.735487,1.593056,2.474675,10.031108,-132.266144,84.073029
883,2094579791,47.240040,45.129230,-64.848679,0.274719,1.941506,1.926907,27.434221,-126.339005,92.140556
884,2094596458,47.652145,42.515053,-65.313309,1.526642,2.818252,2.031808,43.947426,-120.880592,100.764854
885,2094613125,48.276905,39.835815,-65.614395,1.639858,2.110291,2.508057,49.273643,-117.747200,109.124626
886,2094629792,48.997078,37.097172,-65.806976,2.263387,2.727541,2.094926,50.279682,-115.403954,116.183434
887,2094646459,50.100296,34.320839,-65.895866,1.924718,2.382246,1.831530,69.160133,-111.417923,122.792229
888,2094663126,52.772732,31.520630,-65.880424,-0.316015,3.238821,0.757410,159.661652,-104.195244,130.713669
889,2094679793,57.214104,28.602551,-65.920181,-3.671186,-0.488510,7.294685,267.462524,-102.231628,141.125137
890,2094696460,62.259373,25.548233,-66.027084,-0.575042,3.917135,3.553095,305.430176,-97.391060,154.338699
891,2094713127,68.814331,22.405317,-66.016006,2.303236,0.757778,-1.306978,392.786285,-77.657333,170.898193
892,2094729794,75.929802,19.156088,-65.929970,-2.043846,-4.684819,3.735011,424.825226,-54.552448,186.287033
893,2094746461,82.965546,15.805161,-65.802856,-2.648576,-0.999962,2.520939,419.603607,-29.749496,197.999756
894,2094763128,90.237404,12.385713,-65.639381,-2.070131,-1.173593,2.231301,433.680695,-2.723300,204.397491
895,2094779795,97.758804,8.935288,-65.481850,-4.356890,-1.289758,3.452250,449.302002,23.665104,204.910599
896,2094796462,105.159454,5.503540,-65.395172,-3.296227,0.952310,2.602383,443.186829,45.942722,199.808716
897,2094813129,112.255959,2.132090,-65.411331,-3.837391,0.685015,1.860342,425.655518,63.955288,190.928116
898,2094829796,119.124664,-1.162148,-65.529648,-3.937128,1.455650,0.106084,412.036774,79.286880,180.224243
899,2094846463,125.763824,-4.365038,-65.740768,-3.193103,2.709955,-0.983829,397.619476,92.434074,167.996353
900,2094863130,132.276260,-7.465451,-66.024994,-3.392380,3.256015,-1.414475,388.885315,103.972076,154.244614
901,2094879797,138.810074,-10.461381,-66.356789,-2.423731,3.987830,-2.220835,388.836060,114.592422,138.974594
902,2094896464,145.185440,-13.346623,-66.722633,-2.804726,3.689218,-2.274971,377.912445,123.267540,122.557365
903,2094913131,151.146271,-16.112888,-67.109100,-2.810635,1.957329,-2.534344,351.686188,129.281906,105.635704
904,2094929798,156.624908,-18.759499,-67.499672,-1.899777,1.470474,-3.003095,321.644470,132.851807,89.002754
905,2094946465,161.669342,-21.289997,-67.871254,-1.954355,0.963819,-3.672679,294.993774,134.542511,72.632347
906,2094963132,166.284073,-23.719418,-68.185760,-1.677070,0.032157,-3.883297,269.636963,135.406631,55.989296
907,2094979799,170.201157,-26.057110,-68.406395,-2.041418,-0.897000,-4.495846,229.441193,134.980576,39.328342
908,2094996466,172.961151,-28.307209,-68.476990,-2.431424,-1.794141,-5.193622,163.671646,133.092560,22.476692
909,2095013133,174.236008,-30.489582,-68.341431,-1.876237,-2.132677,-5.534471,80.512978,130.991043,6.544188
910,2095029800,173.988129,-32.646824,-67.934410,-0.941166,-1.788123,-5.483305,-2.039471,130.946274,-8.429817
911,2095046467,173.707016,-34.867252,-67.239441,1.902559,-1.083421,-5.450557,6.350589,136.220779,-21.191101
912,2095063134,173.779541,-37.126003,-66.302269,2.142536,-1.966184,-5.381073,37.430244,139.710464,-31.460917
913,2095079801,173.807693,-39.322285,-65.204239,1.104186,-2.269071,-4.986663,42.466969,136.609360,-38.217831
914,2095096468,173.641846,-41.390076,-63.991508,0.938794,-2.847171,-5.502876,37.178246,129.386856,-42.571728
915,2095113135,173.298203,-43.330120,-62.636604,0.187541,-3.611492,-4.855928,34.161369,122.460938,-47.457363
916,2095129802,172.846695,-45.177727,-61.073509,0.015556,-3.843600,-3.866208,38.364655,118.110161,-54.323219
917,2095146469,172.300858,-46.933304,-59.261654,0.459284,-3.100052,-3.571547,45.531170,114.141846,-62.198921
918,2095163136,171.645996,-48.575027,-57.198219,0.297996,-3.033241,-2.958351,52.369190,109.084534,-69.669548
919,2095179803,170.792709,-50.074715,-54.869377,0.073426,-3.347274,-2.383020,54.785389,102.736458,-77.265381
920,2095196470,169.608139,-51.418236,-52.231300,-0.035216,-3.824401,-1.907312,51.510281,96.373192,-85.964401
921,2095213137,167.938568,-52.597595,-49.239624,0.221999,-3.938502,-1.120568,41.312172,90.791931,-95.581871
922,2095229804,165.718170,-53.606384,-45.880989,0.835598,-3.800156,-0.231260,27.962093,86.359802,-104.983582
923,2095246471,162.938461,-54.424088,-42.173561,1.044080,-3.638138,0.385878,13.257992,82.382652,-113.553078
924,2095263138,159.656845,-55.030895,-38.172794,1.409691,-3.863033,0.422178,-0.869781,78.756752,-120.580109
925,2095279805,155.995056,-55.420578,-33.938587,1.550961,-3.734457,0.847289,-10.967383,76.149437,-126.304901
926,2095296472,152.064011,-55.591286,-29.543816,1.387774,-3.203851,1.265960,-18.466776,74.397514,-130.709625
927,2095313139,147.951416,-55.536045,-25.069105,1.268519,-3.540104,1.625253,-25.242945,72.813431,-134.091141
928,2095329806,143.752106,-55.256390,-20.584991,1.498593,-3.370752,1.887301,-30.413176,71.662735,-136.802567
929,2095346473,139.565186,-54.758503,-16.168552,1.820807,-2.627307,2.392823,-34.027737,70.609352,-138.642334
930,2095363140,135.511322,-54.054192,-11.876792,2.355171,-2.188760,2.618153,-33.726677,69.775742,-140.030167
931,2095379807,131.678970,-53.158630,-7.730564,2.514269,-1.413851,2.788249,-29.570890,69.610260,-141.637100
932,2095396474,128.123886,-52.078014,-3.743602,2.656830,-0.498669,2.925381,-23.100971,69.585121,-143.849777
933,2095413141,124.840820,-50.810627,0.070309,3.070881,-0.959249,3.378454,-17.910019,69.225685,-146.902878
934,2095429808,121.825699,-49.353237,3.685703,3.557577,-0.606990,4.078711,-14.407027,68.004761,-150.519394
935,2095446475,119.029587,-47.715199,7.022737,3.628634,0.402622,4.253014,-17.593960,64.301315,-152.884064
936,2095463142,116.413567,-45.918880,10.033608,3.222434,0.890207,4.070799,-25.096411,59.055305,-153.932327
937,2095479809,113.947678,-43.979832,12.731841,3.030532,0.871032,4.321741,-33.440857,53.944756,-155.075562
938,2095496476,111.609505,-41.911888,15.135317,3.103812,1.865116,4.029884,-41.898643,49.051323,-156.333328
939,2095513143,109.410034,-39.734627,17.227922,2.968464,3.061033,4.031191,-49.749588,42.987411,-156.735519
940,2095529810,107.394897,-37.469032,18.982264,2.130304,3.692772,3.643919,-55.106365,34.922001,-156.075455
941,2095546477,105.633469,-35.125591,20.393368,0.649918,3.661984,3.361766,-55.448074,25.251265,-155.353714
942,2095563144,104.135712,-32.725624,21.468513,0.194696,3.644612,3.657010,-53.763775,14.555941,-154.084030
943,2095579811,102.656609,-30.287436,22.227781,0.176740,2.787125,3.726497,-64.855431,3.723442,-152.494461
944,2095596478,101.315308,-27.858627,22.703045,-0.043458,3.152918,2.540991,-66.556084,-6.037621,-148.923370
945,2095613145,100.504227,-25.475683,22.964619,-0.164179,3.024554,1.163402,-41.574390,-13.425409,-144.243942
946,2095629812,101.047157,-23.132278,23.151239,0.175168,3.195033,0.139576,37.200569,-16.384205,-141.246033
947,2095646479,103.820724,-20.718651,23.542208,2.304756,-2.872710,4.745576,175.146866,-10.048531,-147.340347
948,2095663146,106.762970,-18.157103,24.099541,2.072137,-2.046613,8.505678,187.654984,-10.244694,-157.805115
949,2095679813,108.845993,-15.475367,24.658005,2.914097,3.611598,3.274624,134.694183,-18.794088,-164.233536
950,2095696480,110.275169,-12.714292,25.164827,3.023033,-2.399750,4.717960,93.171013,-27.808302,-167.227219
951,2095713147,111.350586,-9.910512,25.629951,1.984812,-1.697284,1.917602,70.043472,-34.335384,-168.226044
952,2095729814,112.035980,-7.096529,26.042233,1.379284,-2.266302,1.822474,44.846966,-39.817307,-167.179794
953,2095746481,112.566338,-4.301103,26.426395,2.108633,-3.255661,1.335653,34.196980,-42.561665,-165.139023
954,2095763148,113.086716,-1.536914,26.807566,1.285971,-1.733624,-0.165483,32.502270,-43.420063,-162.979630
955,2095779815,113.749306,1.171438,27.211809,2.111296,-3.155610,0.223285,39.959351,-42.449638,-160.014755
956,2095796482,114.759117,3.802563,27.664551,1.240528,-1.289771,-1.788599,59.559017,-40.219944,-156.344589
957,2095813149,116.055527,6.342723,28.168139,1.707028,-2.096316,-1.233256,75.271049,-38.313103,-151.849197
958,2095829816,117.504318,8.784545,28.715580,1.608367,-1.679249,-1.471914,82.776543,-37.041000,-146.739197
959,2095846483,118.979942,11.127275,29.294336,1.371967,-1.416175,-1.685320,82.720383,-36.473717,-141.292862
960,2095863150,120.406357,13.371206,29.897705,1.741978,-1.936295,-1.402028,78.103271,-36.041042,-135.763840
961,2095879817,121.708702,15.520770,30.510759,1.445888,-1.300682,-2.161516,69.174797,-36.093021,-130.142349
962,2095896484,122.886841,17.573776,31.127699,1.658856,-1.589406,-2.112662,60.373028,-35.886917,-124.376144
963,2095913151,124.006828,19.523825,31.744432,1.165398,-1.127083,-2.558753,55.666672,-35.267941,-118.265427
964,2095929818,125.048851,21.371847,32.358936,1.185748,-1.062642,-2.483667,49.887489,-34.429283,-112.240082
965,2095946485,125.959648,23.123903,32.963558,1.415437,-1.039318,-2.322772,41.166153,-33.752331,-106.392807
966,2095963152,126.675339,24.782568,33.550465,1.450657,-1.027174,-2.530608,28.905828,-33.035931,-100.571472
967,2095979819,127.203751,26.353825,34.117130,1.537487,-1.131849,-2.551332,17.298635,-32.158958,-95.116142
968,2095996486,127.614502,27.835789,34.660625,1.223079,-1.084290,-2.780939,10.068144,-30.963417,-89.607384
969,2096013153,127.978897,29.226435,35.176529,0.969298,-1.116740,-2.850021,7.358947,-29.642769,-83.947884
970,2096029820,128.390381,30.521595,35.659103,0.626070,-0.901669,-3.236727,10.552775,-28.289206,-77.957909
971,2096046487,128.919540,31.720430,36.091461,0.275043,-0.483962,-3.694109,18.626417,-27.562019,-71.403152
972,2096063154,129.600800,32.822277,36.459515,0.414564,-0.228814,-3.942712,29.367653,-27.347672,-64.366432
973,2096079821,130.350098,33.839203,36.742329,0.347795,0.048596,-4.028789,35.913021,-28.298433,-57.233841
974,2096096488,130.973969,34.796459,36.915451,0.788662,-0.283825,-3.547334,31.850504,-30.879965,-50.530125
975,2096113155,131.292175,35.727467,36.951756,0.666439,-0.659455,-3.514487,18.108734,-35.366978,-44.621601
976,2096129822,131.152039,36.674191,36.825844,0.589231,-0.641646,-3.490417,-3.672060,-41.971832,-40.092819
977,2096146489,130.394699,37.678864,36.509163,1.105359,-1.103789,-3.482113,-33.684509,-50.779770,-37.153938
978,2096163156,128.510208,38.815514,35.938671,1.311670,-1.742974,-3.573924,-91.591774,-64.024376,-36.975651
979,2096179823,126.016266,40.099201,35.098988,-0.033553,-0.604431,-4.023685,-117.328484,-77.507065,-39.155308
980,2096196490,124.031647,41.508499,34.027454,-1.200489,0.381582,-5.147210,-76.781822,-88.278908,-42.723034
981,2096213157,123.196968,43.023514,32.781807,-0.581654,0.027936,-5.418621,0.444802,-96.270271,-46.484619
982,2096229824,123.122505,44.632675,31.403919,-0.262107,0.362030,-5.478214,53.021683,-102.625648,-49.609131
983,2096246491,123.411057,46.294201,29.938431,0.388098,-0.473496,-5.044351,80.208748,-106.140701,-50.939804
984,2096263158,123.723717,47.969299,28.396175,-0.271028,-2.350079,-4.052060,86.789230,-107.917809,-50.365139
985,2096279825,123.854202,49.633881,26.756609,-0.819308,-3.266569,-2.226636,82.057442,-109.273872,-48.405365
986,2096296492,123.724342,51.267017,24.982689,-0.943625,-3.526508,-0.600983,74.488159,-110.674484,-45.184753
987,2096313159,123.315445,52.863693,23.013634,-0.815586,-3.341151,0.106414,68.860641,-113.283371,-41.203312
988,2096329826,122.627220,54.425766,20.772770,-0.064726,-3.185893,-0.110616,67.205193,-117.672089,-36.701382
989,2096346493,121.599953,55.946678,18.185465,0.197564,-2.879006,-0.313631,66.037361,-123.354584,-31.638489
990,2096363160,120.128220,57.393410,15.197883,0.131558,-3.104187,-0.591887,61.688663,-128.828827,-25.460155
991,2096379827,118.108482,58.732723,11.774450,-0.473026,-3.736343,-0.741140,53.352753,-133.756607,-18.822481
992,2096396494,115.462822,59.934147,7.901359,-0.928784,-3.677993,-0.024103,41.375652,-137.989700,-12.444795
993,2096413161,112.164665,60.984020,3.595694,-1.528086,-3.663902,0.515395,27.101652,-141.623184,-7.719978
994,2096429828,108.257179,61.880219,-1.115368,-1.610682,-3.692366,1.036072,14.035848,-145.037247,-5.289114
995,2096446495,103.868340,62.613163,-6.168848,-2.309781,-2.825735,1.375066,5.236656,-147.433334,-4.726572
996,2096463162,99.178085,63.168880,-11.489738,-2.559551,-2.399835,1.895549,3.002011,-148.758820,-5.143918
997,2096479829,94.330490,63.531929,-17.009785,-2.743494,-2.146051,2.689487,5.387820,-149.608047,-5.696855
998,2096496496,89.512581,63.680557,-22.627520,-3.350093,-1.760517,2.991355,13.075638,-149.547791,-5.422358
999,2096513163,84.838142,63.584042,-28.240700,-2.224040,-1.457832,3.262711,21.498236,-149.156387,-3.121695
1000,2096529830,80.391655,63.225021,-33.737595,-1.013416,-0.944118,3.306441,28.325520,-148.655533,0.837904
1001,2096546497,76.183426,62.590473,-39.054611,-0.074797,0.263406,3.561123,31.712368,-149.445877,6.222842
1002,2096563164,72.116211,61.668270,-44.164165,0.074144,0.777979,4.374701,27.146896,-152.438522,12.499566
1003,2096579831,68.129715,60.437771,-49.013363,-0.266452,1.367318,4.759625,15.567500,-157.007767,19.950712
1004,2096596498,64.267097,58.897591,-53.489338,-0.335651,1.871091,4.774590,0.173241,-160.876068,28.215918
1005,2096613165,60.578621,57.077919,-57.481247,0.287342,1.720714,4.330518,-18.098984,-162.604584,36.410297
1006,2096629832,57.074219,55.052979,-60.901970,0.833242,1.928968,3.598224,-39.888763,-160.465073,43.071510
1007,2096646499,53.740505,52.888996,-63.770996,-0.201600,2.386662,3.668431,-60.744976,-156.639069,47.842800
1008,2096663166,50.642605,50.636715,-66.174614,-0.406346,3.241351,3.619481,-72.559494,-152.958054,50.523102
1009,2096679833,47.859947,48.346577,-68.183136,0.520730,3.680378,2.964027,-75.317253,-148.620987,51.513344
1010,2096696500,45.485790,46.048840,-69.827942,0.834099,3.088665,2.376876,-70.050949,-143.031082,52.814800
1011,2096713167,43.551876,43.771488,-71.121452,1.097380,2.662747,2.097048,-61.290470,-135.657318,55.177227
1012,2096729834,42.004250,41.536819,-72.080460,1.245988,2.243855,1.713634,-53.942173,-126.875290,58.577255
1013,2096746501,40.780300,39.364811,-72.744690,1.295153,1.922415,2.009779,-47.681553,-117.561043,62.008064
1014,2096763168,39.953384,37.273956,-73.153923,1.504785,2.147567,2.368776,-34.520195,-107.820740,65.174423
1015,2096779835,39.809258,35.260368,-73.345322,0.935097,1.818600,2.703974,-2.009828,-98.432755,68.965981
1016,2096796502,41.004795,33.299000,-73.345497,-0.051781,2.130292,2.468141,71.555450,-89.425415,74.887161
1017,2096813169,44.565979,31.308434,-73.211349,-1.857789,2.394096,3.490232,209.163132,-82.883469,84.749832
1018,2096829836,49.208660,29.112049,-73.112694,-0.313647,0.991436,8.294493,275.370209,-86.230171,98.363632
1019,2096846503,53.157314,26.687311,-73.073051,2.678397,2.797962,2.307048,235.595306,-89.477898,113.331085
1020,2096863170,57.272449,24.132038,-72.944847,2.710477,-0.213342,-1.014945,243.349457,-81.723892,128.549866
1021,2096879837,61.392357,21.476919,-72.747543,-1.962318,-2.704937,2.797378,242.315414,-71.850533,141.241791
1022,2096896504,65.694305,18.761730,-72.483665,-1.632024,0.390335,0.434414,252.406174,-59.239651,151.108582
1023,2096913171,71.092773,16.033371,-72.121986,-2.579198,-0.428678,-0.646122,317.155487,-41.016041,158.489288
1024,2096929838,77.328941,13.311822,-71.712975,-2.621648,-0.222132,1.025669,367.715240,-21.588289,162.280884
1025,2096946505,83.679649,10.606417,-71.324799,-1.579004,0.355620,1.039937,376.010284,-4.324444,162.557434
1026,2096963172,89.661179,7.947052,-70.998161,-2.811028,-0.370936,1.494930,355.531006,10.004752,159.104294
1027,2096979839,95.255875,5.347394,-70.745415,-3.065598,0.301065,0.236848,333.792023,21.685528,153.886292
1028,2096996506,100.656097,2.819119,-70.550102,-2.783237,0.932124,-0.895555,323.087524,32.502735,147.328873
1029,2097013173,106.041336,0.367791,-70.392990,-2.973564,0.891365,-1.084384,322.797943,43.036476,139.667526
1030,2097029840,111.410362,-2.004272,-70.261993,-2.400594,1.052905,-1.571331,322.235718,53.037685,131.031189
1031,2097046507,116.709618,-4.294675,-70.156853,-2.236464,0.630884,-1.479749,318.313690,61.669682,121.710091
1032,2097063174,121.989601,-6.504529,-70.073807,-1.661466,0.367002,-2.272959,317.307251,69.195389,111.958595
1033,2097079841,127.190788,-8.631647,-70.016632,-1.302089,0.347290,-2.178379,312.584106,75.126213,101.975037
1034,2097096508,132.169434,-10.671727,-69.989578,-1.368566,0.544271,-2.126924,299.070038,79.252396,92.039146
1035,2097113175,136.881882,-12.631753,-69.985176,-1.018427,0.545550,-2.474695,282.895905,82.510109,82.537895
1036,2097129842,141.502304,-14.529183,-69.992615,-0.731426,0.308510,-2.714489,277.227722,85.747887,73.625847
1037,2097146509,146.238647,-16.379789,-70.001221,-0.146543,-0.336568,-3.106492,284.155121,89.250114,64.788574
1038,2097163176,151.091599,-18.181105,-70.009293,-0.298533,0.000341,-2.773098,291.146027,91.931465,55.529411
1039,2097179843,155.785965,-19.927975,-70.016991,-0.904550,-0.019293,-2.845242,281.626770,93.410789,46.200306
1040,2097196510,160.077011,-21.613245,-70.017693,-1.167306,0.156058,-2.433787,257.575439,93.547043,36.987179
1041,2097213177,163.964798,-23.247221,-69.994453,-1.054485,-0.406725,-2.587113,233.939178,93.506042,28.016525
1042,2097229844,167.461609,-24.835506,-69.936989,-0.781847,-0.699757,-2.608470,211.368698,92.985527,19.457020
1043,2097246511,170.504272,-26.381832,-69.830658,-0.810153,-0.678708,-2.893095,185.470139,92.015053,11.095355
1044,2097263178,172.994339,-27.895462,-69.664162,-1.159505,-0.792436,-3.063266,154.138535,91.001129,3.260974
1045,2097279845,174.863266,-29.393265,-69.414261,-1.779648,-1.252552,-3.701804,119.516685,90.599274,-4.534371
1046,2097296512,176.008972,-30.896402,-69.045876,-1.965789,-1.961890,-4.361710,80.059860,91.260300,-12.804562
1047,2097313179,176.295975,-32.421021,-68.522423,-1.829742,-2.371639,-4.576892,33.953709,92.886757,-21.435696
1048,2097329846,175.922577,-33.995842,-67.820641,-0.345894,-1.596062,-4.378220,0.936082,96.463593,-29.612473
1049,2097346513,175.491791,-35.644482,-66.962723,1.070658,-0.858966,-4.005407,3.828044,101.586601,-35.592220
1050,2097363180,175.156845,-37.357548,-65.971870,0.640545,-1.409368,-4.451318,15.533316,106.107628,-40.104565
1051,2097379847,174.836395,-39.088707,-64.877266,0.345695,-1.837392,-4.357331,21.669731,107.726585,-43.187061
1052,2097396514,174.375946,-40.783291,-63.702339,-0.194342,-2.550514,-3.999403,17.884802,106.035522,-45.089222
1053,2097413181,173.778931,-42.421677,-62.431652,-0.632737,-3.092613,-2.874405,15.068222,103.363091,-47.377033
1054,2097429848,173.097992,-44.014553,-61.038258,-0.566556,-3.101864,-1.754379,16.676094,101.576447,-50.392574
1055,2097446515,172.382065,-45.577320,-59.500717,-0.299165,-2.403046,-1.434326,22.343317,100.922035,-53.848579
1056,2097463182,171.652679,-47.115974,-57.792095,0.125799,-2.270675,-1.992872,30.718950,100.863647,-57.994514
1057,2097479849,170.898041,-48.627098,-55.880753,0.596924,-2.286121,-1.727027,40.087486,100.878258,-62.998604
1058,2097496516,170.059341,-50.095886,-53.727509,0.528283,-2.613604,-0.913366,48.028770,100.396645,-69.099991
1059,2097513183,169.029495,-51.497948,-51.294746,0.205250,-2.980817,-0.154533,51.636635,99.001480,-76.130379
1060,2097529850,167.704376,-52.804810,-48.570457,0.223758,-3.348244,0.768001,49.899982,96.536163,-83.066925
1061,2097546517,165.994843,-53.988365,-45.554821,0.326750,-3.763106,1.254812,43.036560,93.176537,-89.514503
1062,2097563184,163.860703,-55.032814,-42.240063,0.614973,-4.120070,1.460477,34.263100,89.978165,-95.770493
1063,2097579851,161.312195,-55.927982,-38.606956,0.878042,-3.687489,1.602417,27.097956,87.618011,-102.336975
1064,2097596518,158.354248,-56.659767,-34.650616,0.460954,-3.312174,1.805084,20.423609,85.995056,-109.026901
1065,2097613185,155.027328,-57.205654,-30.384518,0.678556,-3.751093,2.327634,15.345313,84.683357,-115.778648
1066,2097629852,151.427307,-57.533356,-25.877028,1.121992,-4.138862,2.879104,12.244972,82.558044,-121.782318
1067,2097646519,147.646683,-57.604042,-21.242590,1.208024,-3.569210,3.833921,8.379475,78.542740,-126.793831
1068,2097663186,143.790878,-57.390064,-16.606001,1.614648,-3.237772,4.416054,3.823184,72.853683,-131.126785
1069,2097679853,139.893799,-56.886959,-12.029560,1.100423,-3.258502,4.696334,-2.588822,67.561943,-136.163651
1070,2097696520,136.004730,-56.096714,-7.578333,1.353943,-1.980004,4.161769,-10.028185,62.775238,-141.573547
1071,2097713187,132.236862,-55.034725,-3.323847,1.601460,-0.246562,3.398708,-14.876726,58.493851,-146.557251
1072,2097729854,128.696335,-53.722828,0.673410,2.127189,0.507494,3.311390,-16.800243,54.430782,-150.880234
1073,2097746521,125.472939,-52.183529,4.407950,2.415151,-0.061718,3.329609,-13.876154,51.263763,-155.452957
1074,2097763188,122.612007,-50.434566,7.830598,2.643781,1.335787,2.984529,-10.663939,46.900932,-159.220963
1075,2097779855,120.154953,-48.517292,10.892339,3.712512,1.898052,2.926910,-7.077937,41.287010,-160.808136
1076,2097796522,118.086525,-46.480145,13.603006,5.028901,1.924614,3.546920,-3.492971,35.815914,-160.771240
1077,2097813189,116.392487,-44.350128,16.003653,5.496546,2.738629,3.523587,1.657970,30.712894,-160.515030
1078,2097829856,115.091240,-42.128513,18.104811,5.155016,4.223477,3.357578,9.003479,24.150013,-160.664230
1079,2097846523,114.106155,-39.786301,19.921780,3.940644,4.194854,3.658406,13.056781,15.697344,-162.863785
1080,2097863190,113.151093,-37.299480,21.439699,3.087440,5.045060,3.257234,0.138994,4.825756,-166.163025
1081,2097879857,111.986107,-34.661148,22.673595,2.005393,3.727207,3.060067,-25.741623,-6.027068,-170.175293
1082,2097896524,110.976952,-31.921333,23.628527,1.903098,6.301523,0.853880,-28.453066,-16.183228,-171.588257
1083,2097913191,110.390701,-29.115168,24.339266,0.957012,3.729177,0.269727,-12.934346,-25.597807,-171.668716
1084,2097929858,110.803917,-26.255381,24.940239,0.785390,3.738726,-0.452768,42.083328,-30.929617,-173.077850
1085,2097946525,113.304390,-23.308308,25.686102,3.882681,-0.922558,1.925230,169.260941,-29.155142,-180.425629
1086,2097963192,116.132973,-20.189070,26.611206,5.131383,-5.554885,8.926472,190.798981,-31.858681,-192.880661
1087,2097979859,117.912987,-16.897863,27.511999,3.963321,3.856284,4.739956,124.655846,-44.524532,-200.500076
1088,2097996526,119.003647,-13.499052,28.318146,4.656845,-2.700263,4.233069,78.787575,-56.581459,-202.916382
1089,2098013193,120.334373,-10.070203,29.056868,1.970731,-1.096183,1.241982,89.649269,-64.577591,-201.662064
1090,2098029860,122.058105,-6.664019,29.742657,2.121815,-3.549925,0.985283,110.200264,-71.451332,-197.354004
1091,2098046527,124.087219,-3.307631,30.380091,2.596884,-3.696566,1.524347,125.926643,-78.346550,-190.988541
1092,2098063194,126.143867,-0.011634,30.980553,2.578971,-2.547573,0.038684,125.388435,-84.645279,-183.948807
1093,2098079861,127.883911,3.214996,31.551987,3.296954,-2.990965,0.690058,104.457489,-89.489914,-176.711060
1094,2098096528,128.988419,6.365000,32.098671,3.144520,-1.723025,-0.264021,64.626465,-92.153603,-169.895569
1095,2098113195,129.311844,9.434292,32.630566,3.397335,-1.527749,-0.553659,16.172108,-91.983253,-164.354492
1096,2098129862,129.121246,12.403017,33.165161,3.279274,-0.741278,-1.220496,-16.309086,-88.399864,-159.565918
1097,2098146529,128.672211,15.254194,33.722008,3.112130,-0.654011,-2.458038,-33.699150,-82.309288,-155.228653
1098,2098163196,128.250916,17.967403,34.315880,2.507620,-0.676033,-3.478294,-34.217514,-74.610649,-150.490036
1099,2098179863,128.268311,20.514610,34.958511,1.265193,-0.622625,-4.771014,-10.411492,-66.094009,-144.381958
1100,2098196530,128.797073,22.887104,35.635788,1.174580,-1.571310,-4.525396,17.941294,-59.132549,-136.742020
1101,2098213197,129.665924,25.086960,36.317474,0.618833,-0.958280,-4.669161,36.750229,-54.467880,-127.768509
1102,2098229864,130.827682,27.117878,36.984463,0.746463,-0.893725,-5.154928,53.334702,-51.191376,-118.142891
1103,2098246531,132.184708,28.980169,37.613251,0.462724,-0.650695,-5.655525,64.908897,-48.973763,-107.682686
1104,2098263198,133.550903,30.681940,38.173317,0.120984,-0.367434,-5.747531,66.470421,-47.932560,-96.627098
1105,2098279865,134.748840,32.238464,38.632874,0.151072,-0.318616,-5.641927,58.678127,-47.988503,-85.368576
1106,2098296532,135.642395,33.678677,38.961128,0.279475,-0.356471,-5.765883,44.071590,-49.462620,-74.610023
1107,2098313199,136.176208,35.029209,39.129368,0.125723,-0.442274,-5.885826,27.484299,-52.180382,-64.376122
1108,2098329866,136.309372,36.328465,39.121590,0.066683,-0.628174,-5.956586,9.393188,-56.326088,-55.659752
1109,2098346533,135.925766,37.618717,38.913555,0.010682,-0.126089,-5.667146,-14.397760,-62.445095,-48.510292
1110,2098363200,134.754150,38.957062,38.461994,0.695345,-0.334725,-5.214267,-52.425884,-71.776932,-43.364670
1111,2098379867,132.940414,40.394470,37.717026,-0.067263,-0.056557,-5.746358,-79.224144,-84.238533,-40.434605
1112,2098396534,131.665451,41.913124,36.721527,-0.527638,0.280605,-5.672221,-36.168793,-94.243225,-39.202148
1113,2098413201,131.236725,43.490795,35.526852,-0.270080,-0.312502,-5.125033,23.857651,-101.790375,-38.170685
1114,2098429868,131.209793,45.100231,34.189323,-0.091431,-1.439226,-4.266658,55.352997,-106.482071,-36.894169
1115,2098446535,131.089691,46.693340,32.746838,-0.756466,-2.376460,-3.260707,55.838879,-107.881096,-34.479984
1116,2098463202,130.641357,48.242882,31.199547,-1.597972,-4.105084,-2.280359,42.384365,-107.889778,-31.403240
1117,2098479869,129.818527,49.768665,29.513695,-1.619050,-4.941576,-0.979198,27.840847,-109.313087,-29.191017
1118,2098496536,128.720551,51.294163,27.679617,-2.007804,-3.698264,0.241854,19.935625,-111.536789,-28.737167
1119,2098513203,127.460320,52.831223,25.688583,-2.444133,-2.818045,0.759788,19.449526,-114.078308,-29.421980
1120,2098529870,126.111206,54.371025,23.505547,-2.578565,-2.389349,0.762517,25.297689,-116.897873,-29.579624
1121,2098546537,124.667732,55.897396,21.062050,-2.363478,-2.243577,0.894687,34.464142,-120.641617,-28.240351
1122,2098563204,123.045792,57.389977,18.280869,-1.660046,-2.893308,1.108839,42.812771,-125.324425,-25.357567
1123,2098579871,121.149605,58.821186,15.110797,-1.486431,-3.138086,1.090113,48.436291,-129.957443,-21.461729
1124,2098596538,118.884529,60.149906,11.534646,-1.428309,-3.145529,1.332491,49.645309,-133.354050,-16.653942
