sep=,
DeviceTag:,Xsens DOT
FirmwareVersion:,2.2.1
AppVersion:,2023.6.0
SyncStatus:,Synced
OutputRate:,60Hz
FilterProfile:,General
Measurement Mode:,Custom modes - custom mode1
StartTime: ,2023-12-12_15:43:44_531 CET
© Movella Technologies B. V. 2005-2023

PacketCounter,SampleTimeFine,Euler_X,Euler_Y,Euler_Z,FreeAcc_X,FreeAcc_Y,FreeAcc_Z,Gyr_X,Gyr_Y,Gyr_Z
1,2079862830,2.318753,-1.804204,-158.086227,0.002043,-0.001307,0.234454,-2.042766,-1.267969,-3.488347
2,2079879497,2.305779,-1.822687,-158.136780,0.014926,-0.001198,0.232445,-2.335840,-1.205846,-3.561369
3,2079896164,2.289894,-1.841932,-158.187241,0.030655,0.011276,0.218432,-2.511146,-1.250566,-3.553212
4,2079912831,2.271566,-1.858427,-158.240219,0.015081,0.034757,0.197581,-2.663567,-1.090858,-3.711882
5,2079929498,2.251662,-1.874962,-158.290665,0.014091,0.013068,0.211856,-2.754147,-1.086273,-3.559410
6,2079946165,2.232517,-1.892340,-158.341415,-0.005748,0.028104,0.222881,-2.710272,-1.136576,-3.579298
7,2079962832,2.213975,-1.909114,-158.392242,0.010934,0.023433,0.191407,-2.675042,-1.099348,-3.581642
8,2079979499,2.196082,-1.925352,-158.443878,0.046827,0.031227,0.171510,-2.638544,-1.068165,-3.633521
9,2079996166,2.179750,-1.939154,-158.494843,0.022042,0.034122,0.188040,-2.544622,-0.919867,-3.600365
10,2080012833,2.164135,-1.952021,-158.545670,-0.020356,0.020266,0.177096,-2.501887,-0.862585,-3.595882
11,2080029500,2.151410,-1.965436,-158.596664,-0.025581,0.013656,0.181006,-2.329680,-0.895113,-3.602055
12,2080046167,2.141163,-1.977262,-158.649002,0.008520,0.021313,0.189386,-2.184610,-0.802190,-3.685207
13,2080062834,2.134890,-1.988293,-158.701309,0.040075,0.037788,0.189342,-1.946373,-0.753974,-3.686269
14,2080079501,2.129174,-1.996232,-158.753113,0.046873,0.031141,0.169667,-1.912257,-0.567257,-3.665190
15,2080096168,2.125206,-2.002310,-158.804413,0.042865,0.052997,0.155030,-1.806861,-0.454344,-3.637400
16,2080112835,2.123118,-2.007231,-158.857971,0.006961,0.034833,0.160603,-1.699338,-0.389915,-3.775619
17,2080129502,2.123822,-2.010955,-158.909286,0.014679,0.021247,0.162468,-1.527081,-0.312949,-3.642895
18,2080146169,2.126708,-2.013425,-158.962433,0.055012,0.043316,0.178908,-1.400375,-0.242040,-3.756807
19,2080162836,2.129780,-2.013433,-159.015671,0.095050,0.049495,0.160749,-1.389246,-0.094729,-3.765669
20,2080179503,2.133327,-2.008993,-159.070114,0.076386,0.029310,0.183044,-1.363415,0.168768,-3.850818
21,2080196170,2.136168,-2.004291,-159.123886,0.057451,0.011241,0.167616,-1.403871,0.186019,-3.807162
22,2080212837,2.139585,-1.998585,-159.178787,0.039766,0.001457,0.176928,-1.371765,0.243365,-3.879171
23,2080229504,2.141963,-1.990043,-159.236679,0.033901,-0.012581,0.195957,-1.439946,0.406467,-4.063852
24,2080246171,2.141792,-1.980777,-159.293884,0.082932,0.032381,0.192305,-1.590779,0.451597,-4.023371
25,2080262838,2.139853,-1.969503,-159.353271,0.082789,0.031648,0.197030,-1.701157,0.566764,-4.163332
26,2080279505,2.137138,-1.955954,-159.412933,0.022347,0.008930,0.178968,-1.747619,0.702755,-4.183835
27,2080296172,2.135316,-1.941341,-159.474899,-0.010614,0.002657,0.197382,-1.697661,0.761549,-4.322438
28,2080312839,2.134315,-1.925454,-159.537460,-0.006117,0.019671,0.204903,-1.648638,0.836671,-4.359871
29,2080329506,2.135483,-1.908563,-159.601135,0.022683,0.059010,0.185807,-1.519883,0.894428,-4.429794
30,2080346173,2.138997,-1.889702,-159.665100,0.017412,0.052940,0.221581,-1.378143,1.011708,-4.453703
31,2080362840,2.145649,-1.870613,-159.730743,-0.045838,0.051778,0.197868,-1.192130,1.021236,-4.554566
32,2080379507,2.157732,-1.849529,-159.798386,-0.055981,0.061449,0.228649,-0.868629,1.135763,-4.677865
33,2080396174,2.175430,-1.829733,-159.866241,-0.053289,0.040091,0.225632,-0.530657,1.056940,-4.687509
34,2080412841,2.200121,-1.808630,-159.935577,-0.004674,0.080556,0.224691,-0.112465,1.130308,-4.782967
35,2080429508,2.229190,-1.787060,-160.005783,-0.011931,0.091229,0.215008,0.150225,1.154294,-4.834154
36,2080446175,2.263622,-1.765081,-160.077759,-0.069640,0.077593,0.237573,0.470358,1.172390,-4.941561
37,2080462842,2.304564,-1.743309,-160.151031,-0.071441,0.072353,0.230815,0.860119,1.153846,-5.022202
38,2080479509,2.351111,-1.721975,-160.224106,-0.058869,0.054294,0.237650,1.198886,1.124763,-5.009294
39,2080496176,2.399765,-1.699251,-160.299957,-0.057929,0.027198,0.241580,1.321584,1.197515,-5.181898
40,2080512843,2.449721,-1.677797,-160.376862,-0.030730,0.027942,0.240572,1.399856,1.114863,-5.240525
41,2080529510,2.500174,-1.656292,-160.454758,0.005223,0.038414,0.260088,1.429951,1.111290,-5.301842
42,2080546177,2.551044,-1.634216,-160.534409,-0.020156,0.045172,0.223413,1.453591,1.136839,-5.408442
43,2080562844,2.601382,-1.612850,-160.614883,-0.054845,0.015701,0.219676,1.421972,1.087701,-5.456632
44,2080579511,2.651440,-1.591971,-160.697433,-0.029864,0.007521,0.225660,1.403454,1.048578,-5.581277
45,2080596178,2.700758,-1.571364,-160.779922,0.000912,0.034574,0.245612,1.361117,1.028075,-5.578600
46,2080612845,2.747168,-1.550750,-160.863373,0.005649,0.039516,0.249701,1.186681,1.021607,-5.638329
47,2080629512,2.792219,-1.529368,-160.949463,-0.019719,0.035730,0.268114,1.102941,1.055992,-5.795796
48,2080646179,2.836301,-1.511343,-161.035065,-0.045923,0.034865,0.262092,1.047374,0.852154,-5.757967
49,2080662846,2.880252,-1.495074,-161.120560,-0.056610,0.034259,0.268682,1.041368,0.743287,-5.748271
50,2080679513,2.924449,-1.479181,-161.207718,-0.081075,0.021649,0.262052,1.054776,0.711745,-5.847982
51,2080696180,2.967936,-1.463683,-161.294312,-0.075467,0.036023,0.290668,1.014782,0.686030,-5.811266
52,2080712847,3.011698,-1.447381,-161.381638,-0.057191,0.048103,0.247075,1.031200,0.727638,-5.860366
53,2080729514,3.056019,-1.433329,-161.468964,-0.095178,0.013461,0.275816,1.066302,0.588958,-5.855807
54,2080746181,3.100975,-1.420297,-161.555511,-0.096338,-0.010674,0.259431,1.106821,0.526386,-5.802135
55,2080762848,3.146398,-1.409424,-161.642883,-0.079646,-0.003073,0.299718,1.134649,0.390165,-5.847598
56,2080779515,3.190639,-1.400339,-161.729141,-0.074490,-0.003564,0.286319,1.066801,0.282912,-5.773283
57,2080796182,3.233461,-1.390948,-161.817047,-0.025273,0.004190,0.300683,0.979622,0.291652,-5.874004
58,2080812849,3.272183,-1.382366,-161.904251,-0.013553,-0.006274,0.278199,0.735155,0.241893,-5.825558
59,2080829516,3.308019,-1.376380,-161.992645,-0.062598,-0.019811,0.265245,0.561526,0.079009,-5.889692
60,2080846183,3.341691,-1.372548,-162.079346,-0.069649,-0.034991,0.281230,0.434526,-0.047230,-5.781466
61,2080862850,3.372391,-1.371067,-162.166336,-0.024537,-0.012581,0.296126,0.255864,-0.192044,-5.790596
62,2080879517,3.400918,-1.369644,-162.253220,-0.023602,-0.012109,0.312269,0.125432,-0.197871,-5.782925
63,2080896184,3.423707,-1.369772,-162.340179,-0.013977,-0.017476,0.302344,-0.218540,-0.293240,-5.783463
64,2080912851,3.443978,-1.370793,-162.426285,-0.037210,-0.010586,0.308098,-0.368592,-0.345656,-5.729293
65,2080929518,3.462252,-1.374660,-162.510330,-0.076460,-0.033998,0.297234,-0.485566,-0.510179,-5.596887
66,2080946185,3.477222,-1.380521,-162.593338,-0.083986,-0.060282,0.309853,-0.682604,-0.627486,-5.529975
67,2080962852,3.489136,-1.388871,-162.676285,-0.066615,-0.050598,0.299026,-0.866695,-0.777243,-5.512392
68,2080979519,3.498231,-1.398226,-162.758408,-0.016989,-0.052983,0.309179,-1.035470,-0.835102,-5.459232
69,2080996186,3.504738,-1.409921,-162.836792,0.017098,-0.043175,0.288197,-1.186163,-0.962269,-5.227028
70,2081012853,3.507159,-1.423668,-162.913803,-0.026102,-0.037347,0.250998,-1.430572,-1.080587,-5.138152
71,2081029520,3.508692,-1.438411,-162.988113,-0.054006,-0.049640,0.279483,-1.480786,-1.130199,-4.969978
72,2081046187,3.506145,-1.455242,-163.058792,-0.035233,-0.057840,0.262952,-1.721251,-1.242075,-4.749338
73,2081062854,3.501388,-1.474082,-163.130219,0.008764,-0.053170,0.260690,-1.856396,-1.364683,-4.784363
74,2081079521,3.492433,-1.493981,-163.198151,0.041317,-0.025948,0.279604,-2.104186,-1.414615,-4.571457
75,2081096188,3.480899,-1.515464,-163.264862,0.003697,-0.021530,0.222411,-2.258515,-1.504336,-4.491623
76,2081112855,3.466182,-1.536126,-163.329559,-0.000545,-0.023465,0.219131,-2.448062,-1.447130,-4.375251
77,2081129522,3.450305,-1.559941,-163.392654,-0.001093,-0.042098,0.246250,-2.516576,-1.629019,-4.269599
78,2081146189,3.431903,-1.584242,-163.454132,-0.016214,-0.027176,0.212287,-2.667064,-1.651110,-4.170760
79,2081162856,3.411299,-1.608631,-163.514587,0.014076,-0.025901,0.202497,-2.799186,-1.651469,-4.108905
80,2081179523,3.388514,-1.632025,-163.574310,0.003435,-0.015168,0.204825,-2.930350,-1.588026,-4.068066
81,2081196190,3.365505,-1.655906,-163.633469,-0.039056,-0.003286,0.197854,-2.943924,-1.613549,-4.033911
82,2081212857,3.340883,-1.681755,-163.691345,-0.050009,-0.003962,0.185448,-3.040318,-1.725643,-3.953666
83,2081229524,3.314497,-1.706877,-163.750351,-0.037583,-0.002385,0.198720,-3.149543,-1.684189,-4.018352
84,2081246191,3.289084,-1.732474,-163.809982,-0.033899,0.044096,0.203392,-3.093899,-1.713349,-4.058935
85,2081262858,3.262645,-1.756853,-163.869293,-0.032227,0.048280,0.186147,-3.156446,-1.637856,-4.046129
86,2081279525,3.235818,-1.781816,-163.930283,-0.036618,0.073096,0.163639,-3.184184,-1.676812,-4.145761
87,2081296192,3.210479,-1.807052,-163.991089,-0.059188,0.053467,0.154478,-3.096294,-1.690963,-4.131214
88,2081312859,3.185840,-1.830293,-164.051880,-0.035556,0.043395,0.159735,-3.055826,-1.569713,-4.138552
89,2081329526,3.161470,-1.854516,-164.112900,0.008547,0.090712,0.171244,-3.041303,-1.627931,-4.151679
90,2081346193,3.136531,-1.878144,-164.175034,0.038103,0.097057,0.160741,-3.079390,-1.594519,-4.220653
91,2081362860,3.110924,-1.901689,-164.236954,-0.008522,0.054290,0.137984,-3.120306,-1.587142,-4.208846
92,2081379527,3.084035,-1.923899,-164.298843,-0.012841,0.051123,0.136232,-3.198745,-1.505335,-4.207732
93,2081396194,3.055219,-1.946211,-164.362061,0.015216,0.055013,0.148526,-3.318599,-1.514108,-4.292253
94,2081412861,3.023415,-1.967396,-164.428192,0.028776,0.062580,0.134438,-3.505316,-1.453879,-4.469980
95,2081429528,2.988748,-1.986951,-164.494049,0.030472,0.061186,0.143453,-3.678048,-1.353081,-4.456930
96,2081446195,2.952644,-2.006421,-164.560318,-0.014645,0.067943,0.142378,-3.766322,-1.347075,-4.487192
97,2081462862,2.915113,-2.027136,-164.628891,-0.020424,0.058914,0.163606,-3.857952,-1.425910,-4.618495
98,2081479529,2.876015,-2.047094,-164.699081,-0.008854,0.053113,0.166922,-3.957137,-1.383124,-4.722047
99,2081496196,2.836258,-2.065250,-164.770248,0.030034,0.072308,0.151845,-4.000025,-1.274872,-4.782263
100,2081512863,2.797102,-2.083367,-164.843002,0.030545,0.073877,0.131247,-3.968765,-1.274616,-4.880795
101,2081529530,2.758363,-2.099154,-164.917358,0.001287,0.080248,0.151913,-3.948531,-1.136666,-4.982875
102,2081546197,2.720374,-2.114661,-164.993073,-0.031967,0.081590,0.166051,-3.907512,-1.120901,-5.066039
103,2081562864,2.685466,-2.127019,-165.069931,-0.010837,0.084103,0.172094,-3.726367,-0.932418,-5.144414
104,2081579531,2.652715,-2.138746,-165.149384,0.010250,0.088931,0.164248,-3.603656,-0.899454,-5.304045
105,2081596198,2.625280,-2.148901,-165.229065,0.041021,0.108124,0.136361,-3.286327,-0.803266,-5.322550
106,2081612865,2.602546,-2.156170,-165.309540,0.028748,0.111522,0.159769,-3.006278,-0.630354,-5.374261
107,2081629532,2.584746,-2.162595,-165.391769,-0.039468,0.089710,0.154154,-2.715164,-0.583048,-5.487482
108,2081646199,2.572787,-2.167185,-165.471848,-0.062628,0.066846,0.159013,-2.360121,-0.465985,-5.361969
109,2081662866,2.565330,-2.168596,-165.554749,-0.004499,0.073009,0.167380,-2.096720,-0.282086,-5.538721
110,2081679533,2.562298,-2.167863,-165.639740,-0.030998,0.043033,0.153141,-1.835944,-0.158748,-5.670358
111,2081696200,2.564128,-2.162337,-165.724747,-0.052579,0.068878,0.152917,-1.543959,0.128480,-5.683727
112,2081712867,2.571853,-2.155709,-165.810303,-0.061331,0.057982,0.181493,-1.190696,0.192832,-5.716934
113,2081729534,2.582581,-2.145977,-165.896179,-0.054451,0.028411,0.183588,-1.010613,0.376923,-5.750128
114,2081746201,2.595045,-2.132893,-165.983612,-0.025228,0.017300,0.202256,-0.908918,0.572732,-5.852016
115,2081762868,2.607692,-2.117533,-166.070755,0.016330,0.048267,0.221583,-0.895638,0.708902,-5.837609
116,2081779535,2.617650,-2.098728,-166.157364,0.023970,0.049373,0.238631,-1.054398,0.915686,-5.816837
117,2081796202,2.624949,-2.078901,-166.246933,0.046753,0.027564,0.217897,-1.218703,0.968000,-5.996048
118,2081812869,2.628148,-2.056442,-166.333511,0.046694,0.012776,0.233820,-1.456082,1.133689,-5.824213
119,2081829536,2.624364,-2.032826,-166.421188,0.081966,0.017817,0.227484,-1.875669,1.199744,-5.893957
120,2081846203,2.614924,-2.006946,-166.508942,0.099649,0.028765,0.272297,-2.213117,1.335850,-5.904984
121,2081862870,2.596524,-1.978501,-166.597427,0.147260,0.027365,0.245223,-2.749229,1.488860,-5.952724
122,2081879537,2.570026,-1.950238,-166.686722,0.101620,0.005388,0.280945,-3.234450,1.477744,-6.002556
123,2081896204,2.535994,-1.920278,-166.775024,0.071593,0.016854,0.257065,-3.681852,1.584895,-5.945835
124,2081912871,2.492208,-1.890668,-166.863953,0.087755,0.046484,0.264824,-4.265450,1.565865,-5.982014
125,2081929538,2.443250,-1.860124,-166.952850,0.079108,0.016831,0.288484,-4.573302,1.626195,-5.982000
126,2081946205,2.387728,-1.828340,-167.042084,0.090742,0.025245,0.290790,-4.964844,1.704532,-6.004463
127,2081962872,2.328029,-1.797558,-167.131821,0.054633,0.013928,0.279313,-5.213337,1.648632,-6.033982
128,2081979539,2.265783,-1.764525,-167.221664,-0.045749,-0.011816,0.262270,-5.363544,1.789182,-6.038657
129,2081996206,2.202204,-1.732228,-167.313889,-0.061353,-0.001542,0.284484,-5.444736,1.745499,-6.179974
130,2082012873,2.138283,-1.699627,-167.407043,-0.050993,-0.005082,0.302161,-5.464047,1.767744,-6.235335
131,2082029540,2.075615,-1.666604,-167.501572,-0.088992,-0.034163,0.292901,-5.387901,1.796533,-6.312968
132,2082046207,2.014218,-1.634178,-167.597366,-0.119362,-0.004839,0.290221,-5.310627,1.764120,-6.389025
133,2082062874,1.957627,-1.602700,-167.695038,-0.109402,0.009937,0.280844,-5.022177,1.709641,-6.494510
134,2082079541,1.905231,-1.571441,-167.794525,-0.099176,-0.001122,0.296000,-4.770457,1.698436,-6.604301
135,2082096208,1.856327,-1.541173,-167.895691,-0.104071,-0.024084,0.283884,-4.560189,1.641141,-6.701551
136,2082112875,1.809201,-1.511774,-167.998169,-0.056417,0.021486,0.300749,-4.452629,1.591670,-6.777647
137,2082129542,1.766589,-1.483292,-168.102783,-0.023321,0.099526,0.307659,-4.181941,1.537665,-6.900806
138,2082146209,1.734628,-1.456537,-168.209946,-0.067915,0.131984,0.323027,-3.543812,1.433473,-7.050422
139,2082162876,1.715600,-1.430453,-168.318100,-0.094455,0.195047,0.302517,-2.766249,1.394362,-7.108550
140,2082179543,1.709916,-1.408300,-168.428436,-0.068162,0.222301,0.314204,-1.965583,1.156305,-7.231081
141,2082196210,1.716863,-1.388958,-168.541168,-0.060192,0.172103,0.303953,-1.209009,0.983201,-7.368865
142,2082212877,1.733740,-1.372201,-168.655685,-0.108234,0.198539,0.313481,-0.613488,0.823480,-7.474799
143,2082229544,1.759339,-1.357677,-168.772736,-0.089868,0.231807,0.294709,-0.092001,0.682367,-7.621022
144,2082246211,1.792540,-1.347055,-168.892944,-0.088187,0.230488,0.262520,0.361491,0.438906,-7.803423
145,2082262878,1.833056,-1.337849,-169.015533,-0.114427,0.184357,0.285542,0.798687,0.344843,-7.945227
146,2082279545,1.878520,-1.331416,-169.142258,-0.112966,0.154473,0.265396,1.090493,0.164901,-8.187268
147,2082296212,1.927823,-1.326964,-169.274384,-0.080235,0.111288,0.280669,1.314643,0.029000,-8.508733
148,2082312879,1.976273,-1.325507,-169.409760,-0.045881,0.073985,0.257636,1.259524,-0.163742,-8.696397
149,2082329546,2.021966,-1.326099,-169.548798,-0.070840,0.031111,0.272398,1.089007,-0.300975,-8.913568
150,2082346213,2.062577,-1.329348,-169.690964,-0.076388,0.014806,0.254840,0.779401,-0.473208,-9.094072
151,2082362880,2.098272,-1.333310,-169.836304,-0.102243,-0.007840,0.251537,0.479476,-0.528249,-9.275731
152,2082379547,2.127729,-1.338776,-169.985962,-0.078478,-0.017889,0.246407,0.098359,-0.633133,-9.536213
153,2082396214,2.151619,-1.347006,-170.137543,-0.024005,0.008807,0.270808,-0.239312,-0.807056,-9.643352
154,2082412881,2.169695,-1.357460,-170.291489,0.005371,0.011750,0.267359,-0.592844,-0.949066,-9.779789
155,2082429548,2.182718,-1.370117,-170.446365,0.018881,0.018808,0.269650,-0.899403,-1.085812,-9.833576
156,2082446215,2.194987,-1.385597,-170.603363,0.007310,0.040522,0.216329,-0.949911,-1.261964,-9.952791
157,2082462882,2.206294,-1.402123,-170.761063,-0.016300,0.037522,0.239918,-1.011472,-1.328288,-9.992414
158,2082479549,2.218789,-1.420662,-170.919739,-0.040072,0.047827,0.240224,-0.944609,-1.453073,-10.043639
159,2082496216,2.235593,-1.441434,-171.079346,-0.051961,0.034537,0.227011,-0.690531,-1.591599,-10.095839
160,2082512883,2.258751,-1.464990,-171.239151,-0.026316,0.038251,0.235596,-0.313372,-1.762167,-10.100871
161,2082529550,2.291241,-1.489378,-171.398865,-0.028015,0.076150,0.219358,0.243084,-1.816338,-10.089333
162,2082546217,2.336491,-1.517000,-171.557907,-0.041580,0.099157,0.218453,1.005113,-2.015041,-10.043627
163,2082562884,2.393683,-1.546202,-171.719269,-0.065175,0.079945,0.217036,1.713471,-2.123921,-10.174442
164,2082579551,2.467311,-1.574386,-171.877213,-0.040760,0.110932,0.224274,2.700085,-2.065294,-9.971041
165,2082596218,2.556231,-1.604004,-172.034454,0.025180,0.128330,0.191901,3.614357,-2.162545,-9.920022
166,2082612885,2.661754,-1.634892,-172.191086,0.053402,0.105789,0.196745,4.606618,-2.252804,-9.877849
167,2082629552,2.781680,-1.666108,-172.345032,0.041004,0.078322,0.191868,5.470293,-2.283271,-9.710138
168,2082646219,2.915319,-1.697403,-172.497955,-0.003906,0.058426,0.169687,6.289886,-2.305298,-9.646067
169,2082662886,3.062684,-1.728819,-172.650238,-0.001497,0.059404,0.158262,7.109417,-2.332755,-9.601425
170,2082679553,3.221251,-1.761271,-172.802536,0.012549,0.040349,0.168189,7.776282,-2.418839,-9.590014
171,2082696220,3.387632,-1.793800,-172.952240,0.014892,-0.001860,0.171203,8.245045,-2.440084,-9.427014
172,2082712887,3.558569,-1.824360,-173.102829,0.011879,-0.023166,0.179747,8.511765,-2.351350,-9.479011
173,2082729554,3.730095,-1.855943,-173.251358,0.034550,-0.045214,0.168238,8.545996,-2.431300,-9.345375
174,2082746221,3.900103,-1.888964,-173.399078,0.027256,-0.075732,0.174900,8.451715,-2.540166,-9.282982
175,2082762888,4.066880,-1.918108,-173.545776,0.027887,-0.069198,0.175797,8.254637,-2.329592,-9.232973
176,2082779555,4.228423,-1.948541,-173.691711,0.051139,-0.068250,0.150611,7.937962,-2.427880,-9.171233
177,2082796222,4.383970,-1.978495,-173.835358,0.025916,-0.066042,0.156803,7.578026,-2.413024,-9.034743
178,2082812889,4.534034,-2.006975,-173.977951,-0.006774,-0.077513,0.162013,7.246983,-2.342154,-8.969239
179,2082829556,4.677974,-2.035276,-174.118668,0.010097,-0.052519,0.161335,6.878799,-2.343870,-8.851009
180,2082846223,4.813696,-2.063324,-174.256790,0.002445,-0.040155,0.156416,6.387188,-2.336212,-8.691942
181,2082862890,4.943027,-2.090631,-174.393188,-0.012110,-0.019675,0.157829,6.003024,-2.301815,-8.585868
182,2082879557,5.067793,-2.116006,-174.528091,-0.002764,-0.035125,0.169227,5.728968,-2.196149,-8.501959
183,2082896224,5.187098,-2.141425,-174.660980,0.044786,0.033868,0.129436,5.402097,-2.204883,-8.377160
184,2082912891,5.302551,-2.164928,-174.789276,0.022978,0.037534,0.140583,5.177973,-2.081301,-8.110327
185,2082929558,5.412416,-2.187877,-174.916031,0.024985,-0.004922,0.170964,4.843279,-2.054152,-8.014575
186,2082946225,5.514216,-2.208877,-175.040695,0.054406,0.008115,0.156706,4.360838,-1.939663,-7.898126
187,2082962892,5.606865,-2.229858,-175.162354,0.080609,0.002293,0.167747,3.816504,-1.933388,-7.714175
188,2082979559,5.688999,-2.247416,-175.283325,0.084874,-0.005381,0.159035,3.184741,-1.735760,-7.690880
189,2082996226,5.757283,-2.262526,-175.404266,0.060026,-0.002864,0.180507,2.351253,-1.599040,-7.701587
190,2083012893,5.810006,-2.277810,-175.522507,0.083141,-0.000641,0.169231,1.422216,-1.600564,-7.536591
191,2083029560,5.846413,-2.292250,-175.640762,0.112784,0.012614,0.176300,0.441134,-1.555780,-7.542199
192,2083046227,5.864776,-2.304049,-175.757538,0.155912,0.042386,0.182151,-0.639716,-1.392640,-7.469061
193,2083062894,5.867085,-2.311714,-175.871902,0.139594,0.040375,0.155773,-1.598015,-1.132312,-7.352434
194,2083079561,5.853883,-2.316716,-175.984161,0.115608,0.070837,0.142156,-2.524414,-0.959900,-7.239277
195,2083096228,5.827145,-2.321329,-176.096069,0.106891,0.077207,0.174629,-3.336336,-0.932328,-7.221079
196,2083112895,5.788527,-2.320355,-176.208633,0.080524,0.077243,0.133080,-4.051059,-0.599517,-7.298827
197,2083129562,5.740874,-2.316833,-176.318634,0.077245,0.070290,0.155874,-4.586517,-0.426503,-7.158354
198,2083146229,5.685484,-2.310171,-176.426392,0.049800,0.071681,0.171596,-5.044782,-0.220218,-7.046594
199,2083162896,5.625556,-2.300721,-176.532211,0.045741,0.102571,0.162869,-5.311140,-0.035371,-6.943655
200,2083179563,5.565310,-2.287036,-176.636642,0.061488,0.115447,0.170024,-5.325689,0.232058,-6.888230
201,2083196230,5.505295,-2.271390,-176.739426,0.021777,0.093616,0.170878,-5.306389,0.365013,-6.802670
202,2083212897,5.448047,-2.254230,-176.840149,0.020566,0.112979,0.181821,-5.133605,0.473777,-6.687374
203,2083229564,5.393833,-2.233946,-176.939484,0.030797,0.119670,0.214668,-4.946083,0.674248,-6.620961
204,2083246231,5.344478,-2.210491,-177.038147,0.016442,0.118645,0.199562,-4.650908,0.872708,-6.598562
205,2083262898,5.300516,-2.183694,-177.137344,0.027301,0.141202,0.216356,-4.325858,1.074216,-6.647585
206,2083279565,5.262771,-2.155442,-177.234756,0.006458,0.139712,0.228960,-3.946085,1.175079,-6.550603
207,2083296232,5.228900,-2.125904,-177.331604,-0.010166,0.124807,0.252631,-3.708860,1.258896,-6.523159
208,2083312899,5.199944,-2.094642,-177.430038,-0.005090,0.117915,0.256920,-3.414878,1.356353,-6.626109
209,2083329566,5.175043,-2.062198,-177.527588,0.016606,0.120753,0.257752,-3.165615,1.434920,-6.577483
210,2083346233,5.152068,-2.027673,-177.625458,0.015070,0.117480,0.269464,-3.047733,1.559807,-6.609269
211,2083362900,5.129570,-1.991969,-177.723007,0.007331,0.084079,0.298267,-3.014935,1.634174,-6.595822
212,2083379567,5.105999,-1.955514,-177.820984,0.002306,0.095522,0.298050,-3.076176,1.679342,-6.623650
213,2083396234,5.080693,-1.920295,-177.919678,0.034761,0.096620,0.286617,-3.178101,1.604130,-6.658765
214,2083412901,5.051688,-1.883250,-178.018600,0.089095,0.069371,0.290328,-3.396808,1.714828,-6.681829
215,2083429568,5.016160,-1.845254,-178.117569,0.087376,0.013904,0.326281,-3.784111,1.774967,-6.688848
216,2083446235,4.972909,-1.807119,-178.217239,0.056842,0.015667,0.308285,-4.245037,1.783765,-6.728201
217,2083462902,4.921206,-1.769174,-178.317154,0.072920,0.044045,0.298365,-4.748685,1.775979,-6.743939
218,2083479569,4.864702,-1.731362,-178.418259,0.073238,0.025529,0.297730,-5.034767,1.768064,-6.810611
219,2083496236,4.801323,-1.697762,-178.520233,0.038207,0.035080,0.302555,-5.445274,1.518212,-6.840244
220,2083512903,4.732202,-1.662220,-178.622696,0.019063,0.050031,0.299208,-5.787228,1.639027,-6.876856
221,2083529570,4.660739,-1.627571,-178.726135,0.042737,0.085153,0.298716,-5.925115,1.588545,-6.929492
222,2083546237,4.590362,-1.593682,-178.831100,-0.039325,0.083813,0.296895,-5.858792,1.543556,-7.014334
223,2083562904,4.521754,-1.561225,-178.936798,-0.091919,0.096751,0.271986,-5.750360,1.462351,-7.050038
224,2083579571,4.457707,-1.530608,-179.043259,-0.084643,0.129023,0.256001,-5.474358,1.356033,-7.086460
225,2083596238,4.403916,-1.500771,-179.151459,-0.102600,0.141143,0.275270,-4.858243,1.308111,-7.184542
226,2083612905,4.360356,-1.469926,-179.260422,-0.131620,0.116531,0.254159,-4.242091,1.370581,-7.234834
227,2083629572,4.328192,-1.441122,-179.371292,-0.115457,0.127104,0.275023,-3.557926,1.244233,-7.339053
228,2083646239,4.306975,-1.415246,-179.483551,-0.122196,0.114964,0.272554,-2.899640,1.066225,-7.407297
229,2083662906,4.297160,-1.389006,-179.598297,-0.140572,0.124985,0.229994,-2.216126,1.078506,-7.559244
230,2083679573,4.299098,-1.364728,-179.713394,-0.124162,0.116061,0.263597,-1.508230,0.960419,-7.567786
231,2083696240,4.311680,-1.342003,-179.831116,-0.124075,0.106126,0.252587,-0.870409,0.854690,-7.720834
232,2083712907,4.334142,-1.321949,-179.951889,-0.121368,0.081233,0.258490,-0.278922,0.679012,-7.890890
233,2083729574,4.365030,-1.304477,179.924881,-0.110164,0.094082,0.266015,0.225603,0.510007,-8.030018
234,2083746241,4.404538,-1.290834,179.800385,-0.091033,0.076345,0.271851,0.742986,0.270688,-8.083459
235,2083762908,4.450894,-1.277741,179.673279,-0.091960,0.047630,0.248651,1.152642,0.220288,-8.236816
236,2083779575,4.502648,-1.268546,179.544266,-0.109745,0.026249,0.261388,1.474927,-0.028571,-8.334796
237,2083796242,4.558179,-1.262131,179.413376,-0.095584,0.019857,0.258342,1.700267,-0.210946,-8.437146
238,2083812909,4.615567,-1.259019,179.279770,-0.075788,0.014961,0.257170,1.808916,-0.429013,-8.580063
239,2083829576,4.674641,-1.259473,179.144943,-0.067831,0.004101,0.283394,1.908563,-0.656338,-8.636656
240,2083846243,4.734437,-1.263453,179.006180,-0.070384,0.001896,0.284137,1.946124,-0.894857,-8.854057
241,2083862910,4.795710,-1.269763,178.867004,-0.063596,0.018357,0.258502,2.033706,-1.044563,-8.863711
242,2083879577,4.858747,-1.280527,178.725754,-0.045045,0.030033,0.277202,2.135235,-1.330503,-8.966584
243,2083896244,4.921829,-1.295323,178.583633,-0.018900,0.027903,0.284467,2.135069,-1.585158,-8.994695
244,2083912911,4.986447,-1.312447,178.441788,-0.004210,0.041664,0.273913,2.225353,-1.732341,-8.966777
245,2083929578,5.050733,-1.331791,178.298874,0.020710,0.038909,0.245975,2.201009,-1.879883,-9.014124
246,2083946245,5.116678,-1.354504,178.157669,0.000384,0.020994,0.228502,2.299810,-2.081673,-8.890068
247,2083962912,5.186824,-1.379960,178.014786,-0.072101,-0.011538,0.238816,2.545615,-2.264663,-8.975333
248,2083979579,5.255919,-1.408214,177.872314,-0.126944,-0.033659,0.248560,2.479701,-2.439726,-8.934212
249,2083996246,5.324934,-1.439352,177.730453,-0.110661,-0.066020,0.238232,2.471133,-2.618451,-8.878349
250,2084012913,5.391603,-1.472268,177.588455,-0.052783,-0.046458,0.242022,2.325602,-2.735142,-8.872202
251,2084029580,5.453742,-1.506634,177.446548,-0.014709,-0.054170,0.260801,2.048728,-2.830447,-8.854172
252,2084046247,5.512382,-1.543723,177.305069,-0.009116,-0.048408,0.241529,1.833889,-2.999273,-8.809926
253,2084062914,5.565830,-1.581684,177.164429,0.022961,-0.058158,0.243819,1.518533,-3.054520,-8.753142
254,2084079581,5.615699,-1.622664,177.025543,0.030629,-0.055216,0.243869,1.300761,-3.231901,-8.628972
255,2084096248,5.660142,-1.664781,176.887909,0.028800,-0.068288,0.249842,0.971010,-3.298801,-8.541159
256,2084112915,5.698362,-1.708236,176.751266,0.017219,-0.026532,0.243888,0.593145,-3.378764,-8.474770
257,2084129582,5.735284,-1.753456,176.616257,-0.017712,-0.022632,0.221938,0.511851,-3.479666,-8.364328
258,2084146249,5.773635,-1.799736,176.482193,-0.021181,0.005793,0.237343,0.592851,-3.542314,-8.300245
259,2084162916,5.812496,-1.846797,176.349533,0.016538,0.045138,0.208314,0.619655,-3.585407,-8.207182
260,2084179583,5.855507,-1.892658,176.218857,0.016542,0.030765,0.215765,0.865895,-3.507135,-8.092039
261,2084196250,5.903303,-1.937899,176.091064,0.042398,0.064808,0.209112,1.152834,-3.458215,-7.922382
262,2084212917,5.956917,-1.984371,175.965958,0.066862,0.077154,0.184275,1.501334,-3.521593,-7.752890
263,2084229584,6.018072,-2.029321,175.844177,0.092564,0.066208,0.189857,1.954563,-3.417195,-7.557451
264,2084246251,6.086096,-2.073852,175.724731,0.097711,0.089406,0.160585,2.365596,-3.385615,-7.417478
265,2084262918,6.159779,-2.118436,175.608429,0.125106,0.084520,0.152209,2.707269,-3.376933,-7.227304
266,2084279585,6.239041,-2.159834,175.494644,0.183212,0.080959,0.138119,3.042182,-3.179485,-7.090033
267,2084296252,6.324590,-2.200215,175.385544,0.190247,0.070561,0.121095,3.425078,-3.097613,-6.813722
268,2084312919,6.414229,-2.238284,175.278595,0.153119,0.072319,0.124958,3.671126,-2.955168,-6.695571
269,2084329586,6.508798,-2.273836,175.173203,0.172206,0.076261,0.111090,3.966710,-2.804425,-6.614942
270,2084346253,6.604345,-2.306248,175.070374,0.187476,0.059164,0.085277,4.027553,-2.609883,-6.476006
271,2084362920,6.701710,-2.335901,174.970428,0.178262,0.016421,0.083999,4.140121,-2.435717,-6.323316
272,2084379587,6.797682,-2.360111,174.873810,0.138746,-0.003273,0.052373,4.062156,-2.097540,-6.158805
273,2084396254,6.887749,-2.379475,174.782623,0.118099,-0.016216,0.062981,3.719137,-1.779481,-5.867614
274,2084412921,6.970184,-2.394522,174.696594,0.103999,-0.019708,0.050060,3.272029,-1.493041,-5.589511
275,2084429588,7.042069,-2.406395,174.612320,0.063202,-0.041157,0.040315,2.642251,-1.297834,-5.501686
276,2084446255,7.110012,-2.417713,174.530487,0.039552,0.025469,-0.160376,2.410853,-1.252679,-5.360227
277,2084462922,7.164567,-2.418579,174.449692,-0.027148,0.158136,0.159563,1.609995,-0.627652,-5.373404
278,2084479589,7.207210,-2.409652,174.370758,0.058929,0.110762,0.109066,0.899960,-0.035025,-5.337495
279,2084496256,7.239851,-2.397489,174.294418,0.057557,0.001188,-0.056129,0.307781,0.174032,-5.207062
280,2084512923,7.257616,-2.383790,174.217270,0.110133,0.068547,0.054178,-0.586621,0.256735,-5.270249
281,2084529590,7.260075,-2.368537,174.141022,0.043240,0.143123,0.100175,-1.500840,0.355588,-5.227245
282,2084546257,7.252586,-2.349422,174.062973,-0.036417,0.180621,0.043369,-2.100933,0.571707,-5.363440
283,2084562924,7.235349,-2.324389,173.984787,0.007901,0.247927,0.137378,-2.684314,0.923677,-5.418892
284,2084579591,7.211048,-2.296524,173.906006,0.097264,0.246221,0.147466,-3.106731,1.089942,-5.472744
285,2084596258,7.180354,-2.265719,173.828796,0.145639,0.209486,0.116236,-3.484404,1.278874,-5.398620
286,2084612925,7.142251,-2.233207,173.750656,0.161994,0.218058,0.179120,-3.928554,1.376356,-5.466494
287,2084629592,7.096625,-2.198404,173.675049,0.093557,0.154300,0.198282,-4.371115,1.534630,-5.333999
288,2084646259,7.043569,-2.161222,173.601639,0.080427,0.106361,0.240462,-4.808874,1.696656,-5.219715
289,2084662926,6.983044,-2.122144,173.528290,0.138975,0.078964,0.233661,-5.254062,1.814551,-5.229038
290,2084679593,6.914660,-2.083674,173.456024,0.121714,0.034460,0.234871,-5.719854,1.791231,-5.157899
291,2084696260,6.836414,-2.044960,173.383469,0.119157,0.009963,0.249500,-6.309472,1.809314,-5.174854
292,2084712927,6.748592,-2.004203,173.314636,0.091953,0.000071,0.312315,-6.873465,1.963963,-4.967649
293,2084729594,6.652357,-1.962326,173.247604,0.058913,-0.023890,0.281122,-7.371325,2.050419,-4.861112
294,2084746261,6.550379,-1.920915,173.181778,0.060050,0.009731,0.288341,-7.710514,2.038547,-4.783544
295,2084762928,6.443454,-1.879842,173.118607,0.049438,0.026180,0.309218,-7.999106,2.043811,-4.620021
296,2084779595,6.332301,-1.839599,173.056168,0.055485,0.044027,0.299819,-8.249123,2.006877,-4.566835
297,2084796262,6.218486,-1.799074,172.996765,0.076172,0.085770,0.304379,-8.400071,2.051789,-4.382436
298,2084812929,6.104727,-1.758181,172.936600,0.048058,0.112835,0.296762,-8.395654,2.076172,-4.425786
299,2084829596,5.991910,-1.718052,172.876526,0.038599,0.123118,0.269848,-8.336411,2.038688,-4.411545
300,2084846263,5.881330,-1.680332,172.815125,0.047598,0.132084,0.312635,-8.202059,1.893899,-4.472939
301,2084862930,5.772784,-1.642220,172.754089,0.008366,0.128913,0.307206,-8.076929,1.926863,-4.450836
302,2084879597,5.665744,-1.605748,172.691452,-0.009396,0.099961,0.305628,-7.986784,1.826717,-4.533052
303,2084896264,5.561072,-1.568971,172.627136,0.012915,0.079755,0.321699,-7.844940,1.842277,-4.631994
304,2084912931,5.456555,-1.533422,172.560638,-0.003205,0.072256,0.316441,-7.836643,1.764043,-4.748903
305,2084929598,5.352909,-1.499557,172.493042,-0.086027,0.085305,0.305206,-7.783727,1.664730,-4.803471
306,2084946265,5.250491,-1.465970,172.425064,-0.033856,0.083041,0.312441,-7.708220,1.653639,-4.821783
307,2084962932,5.139425,-1.424129,172.355881,0.044986,0.073709,0.387558,-8.225879,2.147990,-4.939372
308,2084979599,5.017022,-1.388497,172.283157,0.037236,-0.002085,0.288061,-8.908766,1.767130,-5.110197
309,2084996266,4.883392,-1.358501,172.209152,-0.109021,0.014312,0.324687,-9.581421,1.434126,-5.151228
310,2085012933,4.747106,-1.339152,172.132706,-0.138699,0.167943,0.246354,-9.742742,0.795755,-5.244381
311,2085029600,4.619470,-1.328774,172.052292,-0.178951,0.238597,0.309630,-9.227787,0.250627,-5.436285
312,2085046267,4.503864,-1.310063,171.969101,-0.102743,0.264201,0.467424,-8.508516,0.746220,-5.641289
313,2085062934,4.404920,-1.285779,171.882416,0.005532,0.283820,0.351822,-7.511310,1.073012,-5.874377
314,2085079601,4.323036,-1.266543,171.791321,0.007499,0.254600,0.268512,-6.491374,0.759129,-6.112178
315,2085096268,4.257277,-1.255929,171.696976,-0.008318,0.237986,0.271605,-5.526389,0.235963,-6.265956
316,2085112935,4.204106,-1.248093,171.599167,-0.033166,0.211330,0.365151,-4.774887,0.060068,-6.463225
317,2085129602,4.161736,-1.240293,171.497177,0.037646,0.196635,0.337403,-4.131355,0.044611,-6.712181
318,2085146269,4.127283,-1.232629,171.391281,0.110299,0.184286,0.268186,-3.660286,0.023673,-6.944847
319,2085162936,4.097271,-1.231011,171.282288,0.119741,0.132760,0.239588,-3.397141,-0.347949,-7.105451
320,2085179603,4.069987,-1.233188,171.170975,0.065620,0.078706,0.284388,-3.236486,-0.581639,-7.225537
321,2085196270,4.042144,-1.237383,171.057861,-0.016339,0.043825,0.275168,-3.272958,-0.707256,-7.325976
322,2085212937,4.009631,-1.241150,170.943497,-0.024190,0.019679,0.296891,-3.555159,-0.683129,-7.404699
323,2085229604,3.970564,-1.248016,170.827316,-0.028450,-0.016159,0.280167,-3.951067,-0.871857,-7.500809
324,2085246271,3.923244,-1.257536,170.712021,-0.037541,-0.053356,0.281247,-4.446366,-1.022011,-7.440197
325,2085262938,3.866490,-1.269053,170.595795,-0.047393,-0.091498,0.298559,-5.014712,-1.138741,-7.481331
326,2085279605,3.799987,-1.282469,170.479477,-0.126443,-0.086591,0.264185,-5.601960,-1.245751,-7.486402
327,2085296272,3.721586,-1.296679,170.363403,-0.192131,-0.100719,0.230367,-6.316835,-1.282953,-7.465130
328,2085312939,3.630501,-1.310541,170.247360,-0.219512,-0.134270,0.171033,-7.079827,-1.251834,-7.469076
329,2085329606,3.515271,-1.325438,170.131683,-0.194860,-0.203715,0.156770,-8.529711,-1.299807,-7.446806
330,2085346273,3.372401,-1.341350,170.015869,-0.222559,-0.280803,0.177475,-10.190236,-1.345205,-7.451981
331,2085362940,3.203639,-1.356846,169.904846,-0.277327,-0.250814,0.156813,-11.739293,-1.285131,-7.172085
332,2085379607,3.017141,-1.371921,169.796387,-0.276519,-0.150155,0.190195,-12.801839,-1.230666,-7.022624
333,2085396274,2.823716,-1.388507,169.690094,-0.263969,-0.080627,0.198694,-13.216035,-1.292789,-6.892792
334,2085412941,2.632183,-1.406537,169.586838,-0.249140,-0.037752,0.187308,-13.100060,-1.349355,-6.713375
335,2085429608,2.444106,-1.427362,169.486710,-0.235874,-0.034528,0.241434,-12.890100,-1.487996,-6.524327
336,2085446275,2.263936,-1.448148,169.390656,-0.233611,0.002060,0.221791,-12.411911,-1.456275,-6.279214
337,2085462942,2.093594,-1.470669,169.295883,-0.187615,0.061728,0.194206,-11.822317,-1.539670,-6.205987
338,2085479609,1.934147,-1.494431,169.203140,-0.157581,0.082338,0.201394,-11.167681,-1.593559,-6.086503
339,2085496276,1.787887,-1.519170,169.111176,-0.118614,0.101636,0.220014,-10.377515,-1.635705,-6.044036
340,2085512943,1.656422,-1.546571,169.019928,-0.082565,0.104356,0.195207,-9.491175,-1.780634,-5.997447
341,2085529610,1.539086,-1.574126,168.930557,-0.071118,0.110953,0.202407,-8.642959,-1.775089,-5.889489
342,2085546277,1.433942,-1.603338,168.841583,-0.023638,0.103195,0.236352,-7.913355,-1.863261,-5.865605
343,2085562944,1.337304,-1.631982,168.752075,0.002207,0.099853,0.222989,-7.406631,-1.820807,-5.904779
344,2085579611,1.249194,-1.661697,168.663086,0.038496,0.078101,0.230248,-6.896567,-1.875644,-5.873122
345,2085596278,1.167910,-1.692551,168.574829,0.065449,0.064570,0.208309,-6.488479,-1.935258,-5.832026
346,2085612945,1.091881,-1.722755,168.486649,0.110502,0.030002,0.210823,-6.175979,-1.888988,-5.830143
347,2085629612,1.017084,-1.753854,168.401169,0.141541,0.017878,0.174242,-6.100037,-1.932889,-5.667375
348,2085646279,0.942903,-1.781777,168.314713,0.167905,0.017117,0.152251,-6.067470,-1.736951,-5.734313
349,2085662946,0.868173,-1.809216,168.229370,0.151118,0.022492,0.143703,-6.101138,-1.700235,-5.669218
350,2085679613,0.792509,-1.836457,168.143845,0.113800,0.005475,0.140995,-6.159612,-1.681858,-5.681576
351,2085696280,0.715279,-1.861717,168.059052,0.116457,0.030174,0.126958,-6.254853,-1.555895,-5.643683
352,2085712947,0.639080,-1.885568,167.977356,0.105485,0.019019,0.140036,-6.189168,-1.462357,-5.457619
353,2085729614,0.561249,-1.903840,167.896683,0.062044,0.014341,0.119395,-6.286741,-1.120645,-5.403512
354,2085746281,0.483413,-1.918874,167.816956,0.023726,0.030591,0.113537,-6.286511,-0.919176,-5.352954
355,2085762948,0.406766,-1.932303,167.738068,0.005008,0.033246,0.132730,-6.214859,-0.816162,-5.302612
356,2085779615,0.333848,-1.942236,167.660767,-0.006196,0.054233,0.113508,-5.988506,-0.599555,-5.207972
357,2085796282,0.262774,-1.948962,167.583878,0.002500,0.074953,0.154827,-5.877731,-0.401095,-5.184728
358,2085812949,0.196477,-1.951590,167.506973,0.010769,0.088879,0.125113,-5.591496,-0.149847,-5.183358
359,2085829616,0.132713,-1.951599,167.430527,0.035459,0.091010,0.120044,-5.438948,0.012569,-5.160986
360,2085846283,0.072560,-1.948452,167.354034,0.050990,0.105819,0.125420,-5.222148,0.206842,-5.163149
361,2085862950,0.013565,-1.941839,167.275345,0.068080,0.116581,0.132016,-5.156504,0.419350,-5.291252
362,2085879617,-0.041401,-1.933457,167.196426,0.070820,0.141862,0.154100,-4.914693,0.530292,-5.310884
363,2085896284,-0.090080,-1.922370,167.114349,0.086825,0.153639,0.145672,-4.542746,0.696928,-5.493643
364,2085912951,-0.132949,-1.909405,167.030365,0.078749,0.145628,0.160290,-4.196975,0.813799,-5.610515
365,2085929618,-0.169676,-1.895596,166.943848,0.086252,0.161637,0.225714,-3.832020,0.868252,-5.759913
366,2085946285,-0.200337,-1.879987,166.856766,0.081552,0.181396,0.166328,-3.467755,0.979321,-5.795130
367,2085962952,-0.223301,-1.862614,166.766388,0.101068,0.165100,0.203545,-3.010991,1.088149,-5.990811
368,2085979619,-0.238031,-1.845385,166.675858,0.097708,0.176947,0.217170,-2.515487,1.081349,-6.002042
369,2085996286,-0.244259,-1.826080,166.583633,0.114039,0.178246,0.195260,-2.006794,1.207325,-6.104033
370,2086012953,-0.243197,-1.804541,166.490952,0.069236,0.164580,0.203981,-1.568240,1.341536,-6.129210
371,2086029620,-0.236163,-1.782477,166.397186,0.057008,0.128149,0.195489,-1.209522,1.372834,-6.192588
372,2086046287,-0.226276,-1.759034,166.301987,0.078309,0.112098,0.242446,-1.038941,1.455026,-6.279838
373,2086062954,-0.214350,-1.734722,166.206802,0.072250,0.123135,0.231562,-0.914258,1.506046,-6.282143
374,2086079621,-0.200584,-1.709252,166.107697,0.061681,0.121717,0.250592,-0.808196,1.575034,-6.513452
375,2086096288,-0.186708,-1.683248,166.008804,0.041153,0.118594,0.240550,-0.798643,1.605590,-6.500415
376,2086112955,-0.171837,-1.659466,165.907959,0.023272,0.103695,0.249809,-0.739708,1.471085,-6.621665
377,2086129622,-0.155867,-1.636881,165.805023,-0.016056,0.099369,0.235429,-0.674677,1.397961,-6.746170
378,2086146289,-0.137849,-1.613821,165.700226,0.001110,0.087567,0.241019,-0.552415,1.424918,-6.858865
379,2086162956,-0.120485,-1.590431,165.593536,0.018309,0.084312,0.266618,-0.592255,1.443231,-6.970292
380,2086179623,-0.102627,-1.568456,165.487091,0.011142,0.078141,0.250304,-0.559663,1.356225,-6.957128
381,2086196290,-0.084952,-1.545058,165.379242,-0.023477,0.083345,0.248353,-0.570344,1.439696,-7.045964
382,2086212957,-0.067834,-1.523087,165.270645,-0.025216,0.091413,0.265354,-0.602334,1.352383,-7.091043
383,2086229624,-0.048928,-1.502353,165.160660,0.019101,0.084967,0.270828,-0.494748,1.276121,-7.170007
384,2086246291,-0.032420,-1.483251,165.050552,0.034725,0.097240,0.267620,-0.636450,1.176180,-7.179752
385,2086262958,-0.018432,-1.463372,164.940887,0.027729,0.077943,0.298238,-0.784991,1.220951,-7.155433
386,2086279625,-0.007231,-1.446539,164.830811,0.051806,0.076640,0.260562,-0.950603,1.036808,-7.176679
387,2086296292,0.003243,-1.433189,164.720886,0.039685,0.062830,0.277914,-0.991877,0.826605,-7.170826
388,2086312959,0.018491,-1.421604,164.608871,0.007766,0.057501,0.207064,-0.707282,0.719249,-7.297007
389,2086329626,0.030355,-1.405088,164.497940,0.023933,0.068546,0.351912,-0.907330,1.013360,-7.226585
390,2086346293,0.042063,-1.389232,164.389328,0.015647,0.023327,0.349171,-0.911185,0.972636,-7.094372
391,2086362960,0.056797,-1.376750,164.280701,-0.021788,-0.001992,0.146968,-0.728182,0.768631,-7.092644
392,2086379627,0.076079,-1.367694,164.170502,0.031655,0.040379,0.320051,-0.456252,0.560976,-7.188358
393,2086396294,0.095819,-1.356984,164.061676,0.040771,0.050074,0.324618,-0.425606,0.658227,-7.103990
394,2086412961,0.118351,-1.349882,163.951996,-0.017894,0.004966,0.222210,-0.258240,0.439226,-7.153384
395,2086429628,0.141538,-1.345264,163.841812,-0.002218,-0.009876,0.253609,-0.219117,0.287535,-7.186463
396,2086446295,0.164458,-1.341408,163.733246,-0.021416,0.016119,0.308707,-0.232269,0.239396,-7.093451
397,2086462962,0.188068,-1.340711,163.629013,-0.049188,-0.000406,0.247868,-0.184732,0.048043,-6.830152
398,2086479629,0.216621,-1.339851,163.525742,-0.042073,-0.064961,0.234458,0.113471,0.055317,-6.769809
399,2086496296,0.245804,-1.341583,163.424438,-0.064310,-0.080543,0.312022,0.153631,-0.102861,-6.651747
400,2086512963,0.275204,-1.344211,163.326263,-0.054969,-0.112725,0.272446,0.170984,-0.158799,-6.464467
401,2086529630,0.306078,-1.349898,163.233276,-0.020123,-0.168508,0.249470,0.266135,-0.343761,-6.151531
402,2086546297,0.335282,-1.357735,163.145035,-0.032273,-0.216938,0.273895,0.171727,-0.474014,-5.867793
403,2086562964,0.361463,-1.366204,163.062286,-0.088258,-0.274381,0.264977,-0.002792,-0.512459,-5.536365
404,2086579631,0.382237,-1.375048,162.984467,-0.113241,-0.295508,0.243341,-0.321196,-0.534883,-5.239143
405,2086596298,0.397741,-1.386028,162.910156,-0.106779,-0.276082,0.248995,-0.633338,-0.663036,-5.028004
406,2086612965,0.408178,-1.397798,162.840805,-0.082269,-0.249869,0.301902,-0.931265,-0.709254,-4.728078
407,2086629632,0.409883,-1.410180,162.777405,-0.106835,-0.254018,0.246474,-1.447540,-0.743652,-4.374252
408,2086646299,0.405630,-1.424115,162.719025,-0.151090,-0.235770,0.232083,-1.798716,-0.834667,-4.072586
409,2086662966,0.395362,-1.439619,162.668442,-0.135512,-0.210083,0.267991,-2.149034,-0.924849,-3.602990
410,2086679633,0.377771,-1.455956,162.623535,-0.095744,-0.172869,0.257721,-2.580979,-0.971682,-3.263340
411,2086696300,0.357181,-1.470261,162.585587,-0.111016,-0.205541,0.220752,-2.751252,-0.846167,-2.847659
412,2086712967,0.333958,-1.486289,162.554932,-0.121069,-0.201996,0.239450,-2.898500,-0.945813,-2.411321
413,2086729634,0.308236,-1.502151,162.531082,-0.102693,-0.140582,0.238625,-3.038447,-0.932661,-1.999340
414,2086746301,0.280885,-1.517002,162.514526,-0.090917,-0.133611,0.207665,-3.125313,-0.868924,-1.565499
415,2086762968,0.255399,-1.531523,162.502151,-0.063546,-0.102485,0.182332,-3.007085,-0.847422,-1.317850
416,2086779635,0.230690,-1.546102,162.494247,-0.037407,-0.101947,0.220843,-2.953592,-0.849394,-1.046343
417,2086796302,0.208453,-1.559913,162.491562,-0.080412,-0.099418,0.194230,-2.797099,-0.802087,-0.735213
418,2086812969,0.190718,-1.573773,162.494980,-0.112979,-0.104307,0.192464,-2.516704,-0.803432,-0.369540
419,2086829636,0.177466,-1.586512,162.503021,-0.089767,-0.062663,0.188737,-2.240445,-0.735251,-0.091770
420,2086846303,0.169044,-1.598557,162.516144,-0.063285,-0.018875,0.206324,-1.942134,-0.692747,0.210146
421,2086862970,0.165796,-1.609152,162.533539,-0.061643,-0.001620,0.214215,-1.624217,-0.605113,0.466554
422,2086879637,0.169194,-1.621629,162.553192,-0.043279,-0.005798,0.171218,-1.221585,-0.717617,0.604082
423,2086896304,0.176827,-1.630418,162.575089,-0.047432,0.009197,0.209914,-0.963345,-0.495670,0.734515
424,2086912971,0.189491,-1.640368,162.599014,-0.060267,0.005845,0.202035,-0.658080,-0.564798,0.861707
425,2086929638,0.207124,-1.649241,162.626450,-0.037456,0.022560,0.175393,-0.353404,-0.498923,1.074242
426,2086946305,0.229782,-1.657858,162.656067,-0.008537,0.031308,0.194138,-0.048037,-0.482415,1.198258
427,2086962972,0.259305,-1.664400,162.688126,0.019798,0.074688,0.185744,0.368560,-0.356644,1.350090
428,2086979639,0.295296,-1.670869,162.721558,0.002804,0.043841,0.170325,0.759244,-0.350561,1.431667
429,2086996306,0.337845,-1.675617,162.757675,-0.013425,0.042956,0.196774,1.157303,-0.245280,1.591771
430,2087012973,0.381324,-1.680414,162.795395,-0.002029,0.018354,0.189151,1.216315,-0.245972,1.683900
431,2087029640,0.426131,-1.684806,162.833633,0.003566,0.005320,0.198465,1.297328,-0.219488,1.717812
432,2087046307,0.468711,-1.687006,162.872009,0.009874,0.013599,0.194772,1.163732,-0.086340,1.724535
433,2087062974,0.504790,-1.687762,162.911774,0.007603,0.016858,0.223366,0.776302,0.002606,1.808160
434,2087079641,0.536277,-1.687986,162.952469,0.034779,0.025123,0.193656,0.502323,0.036351,1.859988
435,2087096308,0.561403,-1.686925,162.992493,0.055305,0.005758,0.204926,0.119451,0.114201,1.823041
436,2087112975,0.576533,-1.685047,163.032211,0.067302,0.003515,0.164866,-0.480610,0.163800,1.806957
437,2087129642,0.582794,-1.682989,163.072601,0.026757,0.042427,0.194708,-1.011804,0.175402,1.842904
438,2087146309,0.580945,-1.681643,163.110840,0.022069,0.102029,0.206602,-1.502159,0.131464,1.715302
439,2087162976,0.573734,-1.680346,163.148331,0.011113,0.122556,0.190015,-1.825174,0.127852,1.672554
440,2087179643,0.561551,-1.677757,163.184555,-0.029166,0.109618,0.187732,-2.125751,0.204191,1.594422
441,2087196310,0.541974,-1.675313,163.220398,-0.043417,0.083409,0.192414,-2.570106,0.194625,1.571717
442,2087212977,0.514338,-1.670680,163.254349,-0.023334,0.059994,0.177349,-3.057234,0.323981,1.453079
443,2087229644,0.477308,-1.665484,163.288589,-0.036978,0.064906,0.180086,-3.620510,0.356971,1.471059
444,2087246311,0.429314,-1.658432,163.321411,-0.049568,0.049732,0.183803,-4.280690,0.466030,1.388471
445,2087262978,0.369682,-1.650065,163.352463,-0.008543,0.031132,0.179642,-4.982298,0.542394,1.280155
446,2087279645,0.296116,-1.643073,163.382645,0.003010,0.015520,0.182610,-5.820179,0.457449,1.230287
447,2087296312,0.208356,-1.634277,163.410431,0.007623,0.014781,0.188760,-6.675990,0.562513,1.086036
448,2087312979,0.103447,-1.624914,163.433868,-0.024919,-0.026441,0.210703,-7.712626,0.593043,0.827796
449,2087329646,-0.022277,-1.615637,163.454727,-0.008714,-0.101183,0.161147,-8.966252,0.584898,0.673057
450,2087346313,-0.172244,-1.603943,163.471130,-0.042729,-0.129768,0.147992,-10.428766,0.727382,0.407710
451,2087362980,-0.346225,-1.592594,163.484940,-0.015515,-0.114562,0.168025,-11.874169,0.704587,0.255813
452,2087379647,-0.543355,-1.578919,163.498337,-0.004604,-0.050019,0.170333,-13.264157,0.841589,0.236040
453,2087396314,-0.758453,-1.565394,163.506454,-0.036073,0.061165,0.192668,-14.351421,0.833329,-0.082435
454,2087412981,-0.985138,-1.551437,163.510544,-0.016118,0.197265,0.198795,-15.053006,0.861055,-0.320095
455,2087429648,-1.215248,-1.537362,163.508957,0.020762,0.322329,0.197495,-15.267908,0.873592,-0.656953
456,2087446315,-1.440282,-1.524192,163.502548,0.037608,0.415957,0.220158,-14.970494,0.826234,-0.941408
457,2087462982,-1.650071,-1.512586,163.491898,0.032836,0.474701,0.232657,-14.061996,0.740765,-1.197433
458,2087479649,-1.838403,-1.501003,163.477783,0.037914,0.489122,0.248643,-12.779567,0.747770,-1.404486
459,2087496316,-1.999291,-1.492586,163.461639,-0.005960,0.507703,0.260483,-11.135715,0.564165,-1.526056
460,2087512983,-2.132704,-1.483906,163.444382,-0.050363,0.468945,0.279423,-9.488367,0.585052,-1.593507
461,2087529650,-2.236295,-1.478619,163.423096,-0.097841,0.448174,0.292282,-7.704750,0.392636,-1.839991
462,2087546317,-2.310066,-1.473972,163.400238,-0.146893,0.447211,0.302867,-5.917560,0.360159,-1.936244
463,2087562984,-2.352022,-1.469557,163.374466,-0.159620,0.430825,0.314507,-4.012627,0.355037,-2.113727
464,2087579651,-2.358981,-1.466223,163.343201,-0.156676,0.362443,0.315768,-1.921017,0.304413,-2.444963
465,2087596318,-2.333137,-1.464278,163.306076,-0.165839,0.299646,0.311592,0.038822,0.235490,-2.799122
466,2087612985,-2.278817,-1.464708,163.262787,-0.156645,0.241347,0.282576,1.737969,0.106376,-3.172376
467,2087629652,-2.198108,-1.466658,163.212875,-0.135958,0.162457,0.311674,3.311408,0.027783,-3.574278
468,2087646319,-2.098736,-1.469454,163.154709,-0.143233,0.107971,0.297658,4.418517,-0.008900,-4.068987
469,2087662986,-1.984061,-1.472733,163.089752,-0.107323,0.071986,0.316800,5.326079,-0.029916,-4.476281
470,2087679653,-1.857095,-1.478302,163.018143,-0.072189,0.013993,0.331280,6.052916,-0.161847,-4.879130
471,2087696320,-1.720223,-1.484370,162.941696,-0.047974,-0.041362,0.339767,6.639459,-0.192479,-5.172063
472,2087712987,-1.577604,-1.491031,162.859344,-0.011839,-0.052362,0.342152,6.974308,-0.229131,-5.528887
473,2087729654,-1.427606,-1.499950,162.771683,-0.004277,-0.045201,0.331359,7.408136,-0.368695,-5.847547
474,2087746321,-1.269826,-1.509837,162.677689,-0.001434,-0.017422,0.334518,7.864196,-0.431997,-6.227039
475,2087762988,-1.102038,-1.521874,162.578140,0.025234,-0.003034,0.331548,8.454776,-0.570036,-6.565025
476,2087779655,-0.923096,-1.536643,162.473862,0.072932,-0.000025,0.300633,9.114917,-0.747084,-6.847352
477,2087796322,-0.732226,-1.551650,162.368118,0.072792,-0.010787,0.294788,9.826490,-0.780355,-6.935359
478,2087812989,-0.528157,-1.567199,162.258728,-0.004126,-0.029060,0.277972,10.610571,-0.832528,-7.148469
479,2087829656,-0.309518,-1.584868,162.148911,-0.007999,-0.035084,0.274327,11.482367,-0.983708,-7.167411
480,2087846323,-0.077985,-1.604887,162.037964,0.041544,-0.056836,0.241503,12.252041,-1.150165,-7.233390
481,2087862990,0.166730,-1.624966,161.927002,0.082481,-0.028102,0.228578,13.040298,-1.181527,-7.228217
482,2087879657,0.422999,-1.644362,161.816208,0.085611,-0.051918,0.213619,13.731421,-1.169720,-7.216512
483,2087896324,0.690625,-1.666109,161.705734,0.079125,-0.029417,0.182842,14.411043,-1.340929,-7.186815
484,2087912991,0.968469,-1.686409,161.596893,0.049481,-0.048068,0.172734,15.024296,-1.284196,-7.085401
485,2087929658,1.256544,-1.707031,161.489838,0.019815,-0.073925,0.157499,15.638982,-1.333667,-6.971848
486,2087946325,1.552679,-1.726501,161.384598,-0.003024,-0.037423,0.115820,16.123295,-1.294480,-6.858768
487,2087962992,1.856627,-1.747155,161.282440,-0.045115,-0.011588,0.147715,16.595749,-1.392615,-6.661602
488,2087979659,2.170190,-1.767243,161.183411,-0.036860,-0.026007,0.140506,17.176413,-1.384765,-6.468225
489,2087996326,2.493560,-1.786605,161.087936,-0.016076,-0.050499,0.117485,17.768684,-1.365517,-6.252298
490,2088012993,2.825634,-1.805479,160.997116,0.006199,-0.035283,0.115450,18.298115,-1.355746,-5.963246
491,2088029660,3.166302,-1.823454,160.912842,0.009522,-0.003633,0.140523,18.824394,-1.312691,-5.566889
492,2088046327,3.518945,-1.841070,160.831787,0.001664,-0.014418,0.153814,19.547213,-1.310168,-5.366317
493,2088062994,3.882004,-1.858539,160.755096,0.012863,-0.013711,0.153275,20.178839,-1.314471,-5.097549
494,2088079661,4.257279,-1.875329,160.682159,0.068649,-0.010679,0.147336,20.917843,-1.286951,-4.868534
495,2088096328,4.646092,-1.892814,160.612122,0.124671,0.014892,0.142267,21.734735,-1.343606,-4.683380
496,2088112995,5.049646,-1.908308,160.546875,0.124672,0.065542,0.114608,22.627241,-1.228810,-4.396056
497,2088129662,5.468855,-1.921466,160.486938,0.056602,0.123497,0.086348,23.576406,-1.087633,-4.083403
498,2088146329,5.906059,-1.934188,160.431610,0.065039,0.159888,0.108460,24.664640,-1.060150,-3.803097
499,2088162996,6.361604,-1.947925,160.379471,0.067031,0.182866,0.108606,25.770975,-1.125706,-3.598619
500,2088179663,6.836092,-1.959525,160.331238,0.089150,0.209714,0.091432,26.914886,-0.995722,-3.368629
501,2088196330,7.327764,-1.969563,160.285950,0.083140,0.199632,0.105451,27.951681,-0.904656,-3.196883
502,2088212997,7.832476,-1.976917,160.244934,0.170153,0.116112,0.102936,28.742584,-0.733703,-2.954472
503,2088229664,8.343851,-1.983421,160.209717,0.172432,0.067748,0.143252,29.154003,-0.655854,-2.613092
504,2088246331,8.857605,-1.988446,160.178680,0.138992,-0.010954,0.147398,29.305433,-0.549010,-2.372025
505,2088262998,9.372274,-1.993054,160.155014,0.112740,-0.053965,0.160480,29.375210,-0.470302,-1.933099
506,2088279665,9.885083,-1.995083,160.137161,0.086187,-0.075691,0.163237,29.275898,-0.271547,-1.610839
507,2088296332,10.395643,-1.995735,160.128387,0.054462,-0.136893,0.160864,29.159428,-0.104308,-1.090912
508,2088312999,10.902313,-1.997532,160.132690,0.046735,-0.182974,0.205812,28.953493,-0.031209,-0.303473
509,2088329666,11.404579,-2.000419,160.150604,0.074183,-0.269649,0.224538,28.717548,0.064615,0.509547
510,2088346333,11.898988,-2.005406,160.183365,0.052293,-0.333104,0.190993,28.276707,0.130311,1.405533
511,2088363000,12.386495,-2.009188,160.234894,-0.068553,-0.420256,0.201485,27.902086,0.454454,2.489465
512,2088379667,12.868786,-2.014714,160.305389,-0.267633,-0.430376,0.178748,27.629402,0.628185,3.623010
513,2088396334,13.346971,-2.022371,160.400375,-0.387133,-0.508546,0.178615,27.434650,0.871878,5.075958
514,2088413001,13.817450,-2.030388,160.524490,-0.510421,-0.624501,0.211675,27.033899,1.307769,6.771586
515,2088429668,14.275291,-2.040600,160.679153,-0.556666,-0.727399,0.252496,26.341665,1.684008,8.565506
516,2088446335,14.712576,-2.055224,160.869415,-0.560690,-0.924657,0.248928,25.185938,2.033417,10.684922
517,2088463002,15.121416,-2.073720,161.094147,-0.568323,-1.040599,0.310540,23.556412,2.425561,12.731293
518,2088479669,15.492647,-2.096827,161.355453,-0.595213,-1.196937,0.341140,21.383757,2.827822,14.898273
519,2088496336,15.813151,-2.123743,161.654221,-0.551060,-1.323196,0.364997,18.428411,3.307932,17.106306
520,2088513003,16.070572,-2.152878,161.993851,-0.487254,-1.429177,0.382466,14.742835,3.941975,19.480579
521,2088529670,16.257103,-2.186988,162.374817,-0.512778,-1.557111,0.409434,10.592903,4.423278,21.928211
522,2088546337,16.368303,-2.225470,162.799240,-0.507340,-1.701974,0.450206,6.186742,4.962080,24.490717
523,2088563004,16.405479,-2.268330,163.266663,-0.389827,-1.732064,0.397552,1.863630,5.470971,27.033333
524,2088579671,16.369556,-2.315587,163.780746,-0.245363,-1.701331,0.379731,-2.390812,6.007369,29.789772
525,2088596338,16.268108,-2.366018,164.341476,-0.171217,-1.669947,0.345569,-6.182021,6.572878,32.529556
526,2088613005,16.107786,-2.423036,164.950241,-0.223014,-1.683335,0.313946,-9.564431,6.921270,35.420536
527,2088629672,15.894401,-2.484478,165.608490,-0.339731,-1.692724,0.313615,-12.585014,7.366185,38.364605
528,2088646339,15.635705,-2.550489,166.315002,-0.383385,-1.700373,0.299698,-15.133114,7.729052,41.254978
529,2088663006,15.335587,-2.621529,167.068420,-0.429285,-1.717469,0.268906,-17.442801,7.983704,44.076488
530,2088679673,14.994454,-2.695166,167.869308,-0.380012,-1.740590,0.289451,-19.715532,8.327157,46.903969
531,2088696340,14.614764,-2.775636,168.716385,-0.317988,-1.736667,0.268190,-21.833431,8.339603,49.733749
532,2088713007,14.199752,-2.862222,169.609833,-0.251682,-1.736748,0.274083,-23.742924,8.325936,52.567410
533,2088729674,13.751937,-2.952338,170.549042,-0.201397,-1.751166,0.280466,-25.490484,8.382541,55.338997
534,2088746341,13.273618,-3.047032,171.533249,-0.209849,-1.738449,0.250113,-27.090090,8.292445,58.085091
535,2088763008,12.766139,-3.145322,172.560547,-0.177502,-1.767429,0.219440,-28.601624,8.158667,60.712082
536,2088779675,12.233799,-3.245851,173.630615,-0.145222,-1.677386,0.203267,-29.844591,8.024887,63.306660
537,2088796342,11.680749,-3.347397,174.743408,-0.153771,-1.621595,0.136261,-30.828140,7.889532,65.889977
538,2088813009,11.113564,-3.452473,175.894928,-0.101723,-1.486068,0.119750,-31.418781,7.489618,68.272881
539,2088829676,10.539144,-3.555602,177.083664,-0.056937,-1.354733,0.101609,-31.592384,7.335920,70.501900
540,2088846343,9.968129,-3.657802,178.303436,-0.068980,-1.188487,0.018667,-31.143757,7.010459,72.383514
541,2088863010,9.407578,-3.758569,179.553955,-0.065987,-1.098591,0.038120,-30.267885,6.683486,74.240715
542,2088879677,8.866332,-3.856086,-179.166245,0.057666,-0.922316,-0.018135,-28.863758,6.434221,75.993042
543,2088896344,8.350914,-3.950810,-177.861496,0.088659,-0.656771,-0.069497,-27.084257,6.116657,77.491158
544,2088913011,7.871752,-4.044155,-176.538147,0.080375,-0.444088,-0.094413,-24.703018,5.677044,78.622559
545,2088929678,7.435729,-4.131550,-175.205383,0.004029,-0.146879,-0.130415,-21.949377,5.472547,79.166687
546,2088946345,7.050523,-4.213674,-173.873276,-0.029600,0.133643,-0.143619,-18.785139,5.209175,79.117386
547,2088963012,6.715796,-4.290210,-172.551941,0.069830,0.378615,-0.175555,-15.693602,4.963412,78.461182
548,2088979679,6.428255,-4.361928,-171.252518,0.167831,0.598918,-0.059578,-12.858352,4.670570,77.144325
549,2088996346,6.175111,-4.426057,-169.981888,0.166694,0.741180,0.023396,-10.834304,4.566307,75.393631
550,2089013013,5.939313,-4.480776,-168.747208,0.309640,0.805099,0.108340,-9.881134,4.576059,73.209785
551,2089029680,5.698361,-4.528448,-167.552979,0.623817,0.915925,0.206974,-10.314204,4.443186,70.771439
552,2089046347,5.434736,-4.567604,-166.405807,1.087535,1.153386,0.175545,-11.842986,4.363984,67.937218
553,2089063014,5.140691,-4.596688,-165.313141,1.326246,1.275190,0.173296,-13.888239,4.329747,64.650612
554,2089079681,4.815662,-4.615204,-164.278763,1.249877,1.411710,0.276490,-16.000021,4.305293,61.145172
555,2089096348,4.465263,-4.622734,-163.307297,1.011492,1.516619,0.267181,-17.811594,4.292123,57.362381
556,2089113015,4.088161,-4.621257,-162.394043,0.702984,1.501881,0.369544,-19.691067,4.202229,53.879723
557,2089129682,3.689856,-4.608565,-161.534515,0.309337,1.119901,0.501500,-21.228901,4.285658,50.652370
558,2089146349,3.277216,-4.585790,-160.721786,0.040701,0.839029,0.521195,-22.328676,4.356245,47.853218
559,2089163016,2.857114,-4.556973,-159.948288,0.027823,0.726092,0.478701,-22.985455,4.240266,45.523357
560,2089179683,2.437877,-4.520033,-159.207916,0.037152,0.644505,0.528368,-23.116598,4.297637,43.555527
561,2089196350,2.030864,-4.478499,-158.495697,0.134135,0.617531,0.507060,-22.545315,4.188818,41.893425
562,2089213017,1.643314,-4.431096,-157.803375,0.287517,0.651224,0.603430,-21.503136,4.207737,40.720619
563,2089229684,1.282895,-4.379488,-157.127792,0.452590,0.762899,0.592369,-19.987928,4.164276,39.745846
564,2089246351,0.952378,-4.320698,-156.459015,0.539236,0.881386,0.615289,-18.263168,4.343270,39.354706
565,2089263018,0.654756,-4.259764,-155.793503,0.522782,0.793176,0.635121,-16.345695,4.249450,39.184769
566,2089279685,0.389731,-4.197451,-155.124832,0.497033,0.676842,0.575542,-14.418463,4.137789,39.398014
567,2089296352,0.160418,-4.133053,-154.446609,0.561906,0.634717,0.572774,-12.278318,4.092417,39.987446
568,2089313019,-0.033371,-4.066663,-153.755188,0.685102,0.611075,0.545424,-10.136313,4.062385,40.797714
569,2089329686,-0.187733,-3.999922,-153.045990,0.830895,0.631359,0.515254,-7.743640,3.955004,41.874779
570,2089346353,-0.306144,-3.935801,-152.316956,0.941036,0.731968,0.537105,-5.553203,3.690565,43.070366
571,2089363020,-0.397103,-3.873739,-151.568161,0.875542,0.648669,0.551276,-3.873321,3.478863,44.266335
572,2089379687,-0.473944,-3.816818,-150.796646,0.781298,0.498168,0.499469,-2.981443,3.093710,45.635540
573,2089396354,-0.547451,-3.766971,-150.003021,0.785018,0.402809,0.465734,-2.737174,2.595989,46.959541
574,2089413021,-0.631159,-3.722966,-149.190048,0.836875,0.300624,0.471201,-3.312223,2.167806,48.118488
575,2089429688,-0.735431,-3.685218,-148.362076,0.849449,0.245328,0.409244,-4.523305,1.701037,49.019997
576,2089446355,-0.871293,-3.651270,-147.526917,0.757548,0.303238,0.442587,-6.422351,1.362473,49.453514
577,2089463022,-1.050652,-3.623103,-146.693558,0.483778,0.248655,0.421183,-9.066477,0.879439,49.343746
578,2089479689,-1.289851,-3.596838,-145.871735,0.121958,-0.125386,0.415182,-12.724411,0.596608,48.656063
579,2089496356,-1.588298,-3.570980,-145.067383,-0.423321,-0.371198,0.294489,-16.367212,0.367757,47.611877
580,2089513023,-1.933182,-3.542614,-144.278610,-0.956328,-0.541067,0.293597,-19.234133,0.276972,46.686256
581,2089529690,-2.306707,-3.505703,-143.510223,-1.264048,-0.657516,0.111306,-21.054005,0.538787,45.489216
582,2089546357,-2.692427,-3.462100,-142.763855,-1.486223,-0.740847,-0.033649,-21.898020,0.693809,44.191994
583,2089563024,-3.072271,-3.410043,-142.045929,-1.987924,-0.920023,-0.221934,-21.683664,0.988050,42.522316
584,2089579691,-3.429116,-3.348975,-141.364716,-2.379563,-1.119022,-0.229767,-20.474773,1.376814,40.370228
585,2089596358,-3.749873,-3.277699,-140.725250,-2.934873,-1.322674,-0.150890,-18.499886,1.904604,37.919701
586,2089613025,-4.014538,-3.199605,-140.129135,-3.089626,-1.476302,0.059572,-15.329821,2.294468,35.366234
587,2089629692,-4.206181,-3.115013,-139.587357,-3.132345,-1.530902,-0.112922,-11.176544,2.775756,32.157936
588,2089646359,-4.314148,-3.035282,-139.105148,-3.338762,-1.474684,0.151271,-6.392348,2.666732,28.589796
589,2089663026,-4.338007,-2.959013,-138.693619,-3.555610,-1.790614,0.075210,-1.604665,2.748357,24.354431
590,2089679693,-4.273241,-2.890038,-138.361877,-3.814683,-1.766336,0.183563,3.439656,2.682800,19.554779
591,2089696360,-4.114595,-2.830631,-138.115067,-3.840893,-1.640738,0.133175,8.798553,2.524922,14.431380
592,2089713027,-3.853215,-2.777808,-137.956543,-4.030256,-1.374589,-0.015512,14.691593,2.556400,9.118265
593,2089729694,-3.488752,-2.734384,-137.885803,-4.011606,-1.318991,-0.053211,20.618158,2.386153,3.820339
594,2089746361,-3.032921,-2.704113,-137.901566,-3.886376,-1.523419,0.006523,25.854052,1.927546,-1.419946
595,2089763028,-2.506861,-2.679924,-138.002670,-3.547014,-1.564443,0.038395,29.830444,1.806168,-6.562123
596,2089779695,-1.918912,-2.661298,-138.190994,-3.246735,-1.365162,-0.046419,33.304386,1.619261,-11.817290
597,2089796362,-1.286842,-2.646396,-138.470627,-3.141593,-1.029003,-0.052319,35.703350,1.431931,-17.309082
598,2089813029,-0.625571,-2.628257,-138.839020,-2.902651,-0.740175,-0.255980,37.216991,1.528326,-22.643543
599,2089829696,0.044091,-2.614950,-139.297012,-2.651321,-0.741296,-0.383641,37.482563,1.011613,-28.026913
600,2089846363,0.686985,-2.605465,-139.840179,-2.417052,-0.965539,-0.288382,35.650734,0.437219,-33.142056
601,2089863030,1.278549,-2.595509,-140.466049,-1.824897,-0.822782,-0.300813,32.352112,0.032099,-38.104679
602,2089879697,1.806913,-2.579611,-141.167068,-1.444664,-0.344464,-0.279530,28.365719,-0.097649,-42.614166
603,2089896364,2.261965,-2.556570,-141.933228,-1.239712,0.001697,-0.291240,23.806395,-0.167355,-46.530155
604,2089913031,2.633420,-2.533009,-142.752457,-0.959121,0.094193,-0.413188,18.668365,-0.602378,-49.704037
605,2089929698,2.915421,-2.513988,-143.606400,-0.373096,0.165921,-0.341990,13.227818,-1.254638,-51.770782
606,2089946365,3.112738,-2.507474,-144.478439,0.193169,0.231095,-0.268294,8.110221,-2.274469,-52.806084
607,2089963032,3.243073,-2.511715,-145.346680,0.594249,0.321360,-0.294846,4.101741,-3.055202,-52.536724
608,2089979699,3.344708,-2.525026,-146.194092,0.958007,1.126073,-0.117837,2.425283,-3.632043,-51.252529
609,2089996366,3.452863,-2.552617,-147.001129,1.034547,1.643063,-0.143315,2.904754,-4.437605,-48.777214
610,2090013033,3.589519,-2.587982,-147.755478,0.262954,1.521748,-0.150301,4.729350,-4.813583,-45.584919
611,2090029700,3.768716,-2.626515,-148.456100,0.172381,1.329384,-0.216743,7.399358,-4.921564,-42.345314
612,2090046367,4.008356,-2.672402,-149.109192,0.988991,0.885098,-0.213492,11.126742,-5.322044,-39.452770
613,2090063034,4.315644,-2.717789,-149.712036,1.195119,0.366797,0.041596,15.295227,-5.260057,-36.425312
614,2090079701,4.679348,-2.752412,-150.257538,1.269404,0.156866,0.325221,18.817753,-4.557150,-33.014694
615,2090096368,5.081801,-2.777710,-150.739914,1.559224,0.189860,0.394922,21.306952,-3.895338,-29.263325
616,2090113035,5.506705,-2.790437,-151.155106,1.978945,0.240660,0.470638,22.838907,-2.980447,-25.292887
617,2090129702,5.932412,-2.797505,-151.510620,1.861649,0.051112,0.702158,23.055244,-2.471378,-21.744862
618,2090146369,6.333206,-2.800523,-151.817261,1.655970,-0.274991,0.731445,21.700312,-2.070293,-18.838873
619,2090163036,6.690679,-2.798496,-152.084641,1.607759,-0.405649,0.843778,19.214464,-1.624323,-16.521893
620,2090179703,6.992254,-2.786490,-152.324463,1.556027,-0.467962,0.900775,15.941018,-0.925222,-14.941476
621,2090196370,7.226444,-2.762365,-152.541916,1.408919,-0.596804,0.974292,11.965991,-0.105819,-13.698544
622,2090213037,7.398109,-2.728041,-152.740845,1.229327,-0.756437,1.017314,8.272378,0.595374,-12.674979
623,2090229704,7.517927,-2.688169,-152.927032,0.971897,-0.849863,1.014476,5.204151,0.993587,-11.963711
624,2090246371,7.592365,-2.644911,-153.100174,0.634698,-0.885912,1.061100,2.524101,1.278478,-11.215590
625,2090263038,7.618182,-2.596890,-153.262283,0.214240,-1.054959,1.052214,-0.355889,1.640155,-10.600845
626,2090279705,7.594493,-2.545221,-153.409180,-0.147762,-1.390230,0.957171,-3.277671,1.978281,-9.724813
627,2090296372,7.520596,-2.488770,-153.538681,-0.472399,-1.739566,0.967933,-6.236926,2.408843,-8.727558
628,2090313039,7.397798,-2.432680,-153.645081,-0.717044,-2.048928,0.972330,-9.105062,2.582830,-7.346584
629,2090329706,7.232263,-2.382675,-153.728790,-0.909726,-2.161424,0.949723,-11.607095,2.412814,-5.947132
630,2090346373,7.029319,-2.339191,-153.783569,-1.124281,-2.198699,0.843492,-13.776926,2.259842,-4.169097
631,2090363040,6.785014,-2.298616,-153.808456,-1.247415,-2.413502,0.844383,-16.184320,2.318521,-2.361506
632,2090379707,6.497134,-2.257551,-153.802444,-1.323448,-2.674241,0.773410,-18.725107,2.572638,-0.514765
633,2090396374,6.156244,-2.223232,-153.762650,-1.300562,-2.662635,0.592484,-21.827602,2.396168,1.551870
634,2090413041,5.751734,-2.200119,-153.684616,-1.140248,-2.632234,0.496528,-25.557985,1.954504,3.919283
635,2090429708,5.277747,-2.186908,-153.559525,-0.876549,-2.668494,0.373136,-29.621069,1.602496,6.797268
636,2090446375,4.733166,-2.184772,-153.384735,-0.778897,-2.655249,0.269381,-33.745056,1.137894,9.840525
637,2090463042,4.129006,-2.189194,-153.160980,-0.609071,-2.443952,0.072495,-37.208374,0.870408,12.805403
638,2090479709,3.473510,-2.201931,-152.885803,-0.713645,-2.134844,0.015345,-40.169533,0.432428,15.919914
639,2090496376,2.783372,-2.215927,-152.557068,-0.751844,-2.018472,-0.011105,-42.120647,0.340773,19.136984
640,2090513043,2.076400,-2.228522,-152.176178,-0.544642,-1.946775,-0.090955,-43.005394,0.319041,22.257906
641,2090529710,1.366846,-2.242162,-151.740570,-0.400668,-1.933104,-0.240931,-43.027195,0.074655,25.546751
642,2090546377,0.661257,-2.254467,-151.253952,-0.383094,-1.931387,-0.310315,-42.663792,-0.111736,28.594881
643,2090563044,-0.033265,-2.267071,-150.717453,-0.179346,-1.739866,-0.240211,-41.875645,-0.467769,31.582846
644,2090579711,-0.703996,-2.277921,-150.136642,0.028427,-1.526646,-0.308989,-40.336315,-0.761127,34.233074
645,2090596378,-1.334040,-2.285921,-149.515594,0.159242,-1.181081,-0.337717,-37.793560,-1.026708,36.635666
646,2090613045,-1.920033,-2.293474,-148.863159,0.344488,-0.847151,-0.371531,-35.070187,-1.447272,38.504520
647,2090629712,-2.451009,-2.300126,-148.187439,0.314769,-0.770552,-0.498601,-31.708303,-1.826663,39.881397
648,2090646379,-2.920914,-2.311894,-147.496140,0.042179,-0.577191,-0.431263,-27.999598,-2.530031,40.784996
649,2090663046,-3.321084,-2.328688,-146.799957,-0.233467,-0.158533,-0.285162,-23.792761,-3.160453,41.040764
650,2090679713,-3.647103,-2.348375,-146.104858,-0.134276,0.289855,-0.202046,-19.332104,-3.592950,40.941673
651,2090696380,-3.894153,-2.369735,-145.419983,0.209794,0.607154,-0.354568,-14.603022,-3.860602,40.306549
652,2090713047,-4.062176,-2.396304,-144.757614,0.353538,0.579425,-0.281832,-9.898980,-4.227285,38.922977
653,2090729714,-4.153110,-2.431754,-144.127411,0.291441,0.585553,-0.218600,-5.332681,-4.710763,36.951775
654,2090746381,-4.180889,-2.476894,-143.529800,0.214362,0.683161,0.124183,-1.599507,-5.188183,34.953785
655,2090763048,-4.162323,-2.524451,-142.965591,0.446657,0.992346,0.111568,1.123819,-5.190855,32.946423
656,2090779715,-4.110662,-2.578116,-142.438675,0.548889,1.197047,0.032031,3.040807,-5.375676,30.690001
657,2090796382,-4.036991,-2.634950,-141.953262,0.521577,1.104636,0.045691,4.279273,-5.356080,28.202526
658,2090813049,-3.956807,-2.693265,-141.516220,0.717711,1.091208,0.126108,4.565519,-5.205128,25.307436
659,2090829716,-3.886757,-2.752018,-141.132584,0.654525,1.102110,0.195047,3.832365,-4.980053,22.118162
660,2090846383,-3.835368,-2.810606,-140.805252,0.634875,1.219600,0.228770,2.572754,-4.720427,18.757019
661,2090863050,-3.800513,-2.868490,-140.536819,0.506367,1.343896,0.281098,1.426046,-4.430079,15.239501
662,2090879717,-3.779726,-2.917149,-140.323456,0.182392,1.015188,0.368130,0.430953,-3.653705,11.985501
663,2090896384,-3.767319,-2.957983,-140.159180,-0.056789,0.694979,0.375451,-0.212214,-2.989220,9.083271
664,2090913051,-3.750546,-2.990191,-140.033447,-0.177725,0.556364,0.329807,-0.063199,-2.319858,6.814125
665,2090929718,-3.712334,-3.011124,-139.934464,-0.068738,0.591727,0.351081,1.143127,-1.537223,5.257308
666,2090946385,-3.641092,-3.019053,-139.854538,-0.000667,0.789802,0.323901,3.066845,-0.680478,4.170689
667,2090963052,-3.535550,-3.017981,-139.786072,0.131414,0.887452,0.349320,5.089493,-0.092103,3.519806
668,2090979719,-3.403233,-3.004353,-139.722443,0.285407,0.846788,0.408007,6.680556,0.684941,3.276025
669,2090996386,-3.252547,-2.981121,-139.663193,0.357575,0.775855,0.443917,7.768122,1.283856,3.047867
670,2091013053,-3.101553,-2.943508,-139.611008,0.765981,-0.132677,-1.080361,7.762711,2.177272,2.670112
671,2091029720,-2.946039,-2.912956,-139.552139,-0.376877,1.192013,2.334570,8.051955,1.741523,3.039690
672,2091046387,-2.792532,-2.863717,-139.495270,0.222983,0.432263,0.403456,7.924053,2.875890,2.973155
673,2091063054,-2.632018,-2.815155,-139.431000,-0.055207,0.298769,0.595627,8.363658,2.823539,3.406126
674,2091079721,-2.478363,-2.763413,-139.354385,0.348957,-0.176135,0.774704,7.985036,2.991775,4.141325
675,2091096388,-2.327931,-2.711097,-139.272675,0.165959,-0.156371,0.800168,7.801957,3.025635,4.445130
676,2091113055,-2.193010,-2.657456,-139.180801,0.153913,-0.257599,0.672907,6.894921,3.093740,5.048694
677,2091129722,-2.070499,-2.604238,-139.083725,0.157297,-0.555177,0.416267,6.159325,3.069472,5.352217
678,2091146389,-1.955960,-2.552143,-138.984695,-0.326911,-0.744056,0.557876,5.680583,3.010613,5.462607
679,2091163056,-1.843532,-2.505933,-138.885910,-0.576151,-0.954931,0.486925,5.548205,2.671143,5.429106
680,2091179723,-1.715472,-2.463980,-138.791992,-0.738980,-1.067965,0.478624,6.469161,2.438861,5.124788
681,2091196390,-1.558316,-2.423815,-138.705292,-0.865501,-1.099358,0.372729,8.192462,2.359731,4.681472
682,2091213057,-1.355109,-2.385051,-138.630005,-0.920397,-1.076413,0.294252,10.923778,2.311246,3.990032
683,2091229724,-1.098512,-2.347449,-138.563568,-1.133013,-1.120158,0.127221,14.102510,2.272815,3.448132
684,2091246391,-0.786522,-2.312603,-138.508423,-1.257071,-1.279313,0.083157,17.396799,2.140283,2.761635
685,2091263058,-0.422145,-2.278592,-138.467026,-1.342576,-1.328832,0.031572,20.505499,2.120664,1.921807
686,2091279725,-0.009801,-2.246944,-138.444351,-1.436916,-1.181654,-0.000246,23.338484,2.002155,0.781759
687,2091296392,0.448671,-2.218784,-138.448608,-1.367674,-1.089158,-0.024137,26.043406,1.799034,-0.845528
688,2091313059,0.948239,-2.193996,-138.483337,-1.279990,-0.819875,-0.083918,28.439699,1.574155,-2.684372
689,2091329726,1.479979,-2.172233,-138.542816,-1.042911,-0.658035,-0.101628,30.314873,1.343691,-4.181556
690,2091346393,2.033849,-2.150085,-138.624817,-0.760484,-0.697366,-0.161192,31.593912,1.292620,-5.542212
691,2091363060,2.594519,-2.127808,-138.728683,-0.525496,-0.627486,-0.163883,31.955147,1.200171,-6.864537
692,2091379727,3.144975,-2.103784,-138.854630,-0.398309,-0.713993,-0.258614,31.295828,1.178669,-8.201780
693,2091396394,3.670939,-2.081748,-139.004166,-0.388473,-0.857175,-0.172752,29.777426,0.904752,-9.619597
694,2091413061,4.160543,-2.059522,-139.180450,-0.450867,-0.871333,-0.141907,27.540943,0.727614,-11.227119
695,2091429728,4.611613,-2.036818,-139.386047,-0.620547,-0.779046,-0.083324,25.169878,0.535697,-12.986455
696,2091446395,5.020122,-2.016758,-139.619019,-0.626095,-0.714697,0.054174,22.562572,0.147882,-14.613004
697,2091463062,5.385394,-1.997705,-139.874405,-0.587579,-0.698802,0.096909,19.925797,-0.127974,-15.948719
698,2091479729,5.706963,-1.986138,-140.150787,-0.434087,-0.615004,0.171467,17.263744,-0.787618,-17.155088
699,2091496396,5.980982,-1.975979,-140.445709,-0.376175,-0.574671,0.154393,14.375021,-1.069921,-18.246691
700,2091513063,6.201701,-1.969834,-140.756973,-0.144346,-0.549342,0.180614,11.145251,-1.488882,-19.193384
701,2091529730,6.364755,-1.971685,-141.086426,0.031177,-0.406166,0.168745,7.647907,-2.146809,-20.219427
702,2091546397,6.465750,-1.981068,-141.429199,0.099492,-0.257363,0.260529,3.893873,-2.729895,-20.957087
703,2091563064,6.497123,-1.997534,-141.776978,0.262752,-0.071055,0.222981,-0.299093,-3.208969,-21.203571
704,2091579731,6.453197,-2.021498,-142.122086,0.510632,0.207081,0.323797,-4.819831,-3.635870,-20.996046
705,2091596398,6.333989,-2.053700,-142.453293,0.738140,0.460203,0.282678,-9.318315,-4.005898,-20.114920
706,2091613065,6.149046,-2.090417,-142.765915,0.859355,0.530597,0.314472,-13.235119,-4.102548,-18.984631
707,2091629732,5.916579,-2.131386,-143.057083,0.693201,0.500453,0.401062,-16.052729,-4.155477,-17.696733
708,2091646399,5.663740,-2.177565,-143.325119,0.523392,0.473982,0.460542,-17.237101,-4.254982,-16.301712
709,2091663066,5.417425,-2.226150,-143.571701,0.395426,0.536789,0.444956,-16.810297,-4.207111,-15.026357
710,2091679733,5.195177,-2.273914,-143.792587,0.339918,0.528530,0.461279,-15.318761,-3.957245,-13.514061
711,2091696400,5.005730,-2.322861,-143.984238,0.352265,0.538386,0.422103,-13.291750,-3.826323,-11.776144
712,2091713067,4.857288,-2.370413,-144.143951,0.392405,0.554287,0.439357,-10.763002,-3.546081,-9.884587
713,2091729734,4.758397,-2.414875,-144.269806,0.392180,0.422760,0.413931,-7.713127,-3.172365,-7.887242
714,2091746401,4.710322,-2.455530,-144.361130,0.379044,0.163158,0.405555,-4.582126,-2.765020,-5.846382
715,2091763068,4.709332,-2.491758,-144.422943,0.379239,0.055733,0.447766,-1.684803,-2.353231,-4.105319
716,2091779735,4.739534,-2.520315,-144.460907,0.425924,0.075413,0.399899,0.246798,-1.778059,-2.716995
717,2091796402,4.786363,-2.541116,-144.478165,0.594575,0.186540,0.333023,1.297776,-1.213005,-1.516118
718,2091813069,4.838122,-2.555347,-144.477264,0.738223,0.160063,0.341866,1.641114,-0.730820,-0.466407
719,2091829736,4.881528,-2.563279,-144.459717,0.752732,-0.002840,0.299980,1.183928,-0.270163,0.498442
720,2091846403,4.906492,-2.563233,-144.428787,0.723570,-0.125170,0.377099,0.112677,0.275048,1.256233
721,2091863070,4.902692,-2.557926,-144.387299,0.700691,-0.121234,0.312660,-1.586015,0.643564,1.860372
722,2091879737,4.859032,-2.544089,-144.338547,0.719921,-0.027855,0.276522,-3.959199,1.189153,2.251094
723,2091896404,4.775382,-2.524039,-144.284271,0.678599,0.029953,0.190321,-6.345587,1.584780,2.549521
724,2091913071,4.651356,-2.499787,-144.228790,0.597334,0.057222,0.206199,-8.766871,1.835503,2.604601
725,2091929738,4.495603,-2.471021,-144.171600,0.478645,0.062254,0.220749,-10.668025,2.105537,2.692286
726,2091946405,4.315186,-2.439092,-144.111923,0.370326,0.135445,0.194197,-12.143756,2.295956,2.830813
727,2091963072,4.115882,-2.404534,-144.050797,0.331998,0.280159,0.147549,-13.275441,2.447877,2.913145
728,2091979739,3.905007,-2.366114,-143.988052,0.314634,0.375798,0.127999,-13.968115,2.672745,3.002099
729,2091996406,3.686352,-2.326949,-143.925949,0.301008,0.384694,0.106188,-14.439182,2.700458,2.971107
730,2092013073,3.462174,-2.286265,-143.863571,0.279714,0.336871,0.083227,-14.772380,2.778026,2.991418
731,2092029740,3.235931,-2.244632,-143.799072,0.224574,0.311586,0.136212,-14.893940,2.827792,3.126833
732,2092046407,3.010773,-2.201927,-143.735641,0.185736,0.308725,0.076297,-14.834145,2.873254,3.071509
733,2092063074,2.791592,-2.160945,-143.669724,0.169459,0.380846,0.145905,-14.472416,2.762748,3.235584
734,2092079741,2.580410,-2.119217,-143.604446,0.117538,0.448759,0.122150,-13.996673,2.790768,3.205733
735,2092096408,2.380213,-2.080047,-143.538956,0.160985,0.445194,0.156651,-13.339590,2.623748,3.233664
736,2092113075,2.189300,-2.043578,-143.473740,0.178740,0.405619,0.173620,-12.785394,2.447366,3.236045
737,2092129742,2.006732,-2.006722,-143.405045,0.235735,0.322601,0.210310,-12.279721,2.465185,3.450007
738,2092146409,1.827047,-1.971557,-143.334549,0.292436,0.300125,0.192612,-12.105490,2.353968,3.568331
739,2092163076,1.649426,-1.939587,-143.259995,0.374007,0.265259,0.187157,-11.975865,2.156290,3.830478
740,2092179743,1.468230,-1.909998,-143.179337,0.357083,0.103460,0.203302,-12.180625,2.008901,4.201771
741,2092196410,1.282298,-1.882404,-143.095078,0.344044,-0.048046,0.243283,-12.460265,1.878622,4.427305
742,2092213077,1.090136,-1.856238,-143.006653,0.399865,-0.042553,0.319761,-12.828640,1.781319,4.682728
743,2092229744,0.895278,-1.832873,-142.913574,0.364392,0.015146,0.280409,-12.984048,1.599982,4.977045
744,2092246411,0.703201,-1.811580,-142.816315,0.292070,0.002567,0.335992,-12.811660,1.460110,5.228240
745,2092263078,0.518582,-1.795781,-142.711609,0.246748,-0.090477,0.337839,-12.352308,1.115760,5.686605
746,2092279745,0.344946,-1.784319,-142.601135,0.263274,-0.142069,0.352183,-11.684149,0.838516,6.034913
747,2092296412,0.179317,-1.774640,-142.481369,0.246569,-0.152556,0.351866,-11.187955,0.714371,6.598137
748,2092313079,0.022627,-1.769389,-142.354095,0.210949,-0.238889,0.363847,-10.638792,0.429224,7.049701
749,2092329746,-0.121878,-1.766830,-142.216980,0.130383,-0.302773,0.338577,-9.890372,0.247143,7.640829
750,2092346413,-0.252326,-1.766274,-142.068970,0.080738,-0.332320,0.319673,-9.027148,0.105364,8.292788
751,2092363080,-0.366245,-1.768184,-141.911804,0.089554,-0.433517,0.310761,-8.018482,-0.064224,8.844448
752,2092379747,-0.467044,-1.772460,-141.742340,0.142687,-0.472537,0.300043,-7.208287,-0.228798,9.579146
753,2092396414,-0.559677,-1.780877,-141.557785,0.122951,-0.549385,0.307271,-6.689374,-0.502201,10.483757
754,2092413081,-0.648541,-1.792765,-141.360550,0.140137,-0.545781,0.284056,-6.437833,-0.735367,11.237995
755,2092429748,-0.736924,-1.806501,-141.152863,0.161704,-0.521957,0.258156,-6.386928,-0.871678,11.863816
756,2092446415,-0.824304,-1.823685,-140.934555,0.081715,-0.501762,0.244477,-6.303456,-1.105880,12.494555
757,2092463082,-0.912722,-1.841729,-140.704391,-0.021863,-0.579550,0.200478,-6.339238,-1.187867,13.206666
758,2092479749,-0.999809,-1.861962,-140.462814,0.021222,-0.632673,0.208793,-6.232625,-1.350930,13.886660
759,2092496416,-1.083721,-1.886658,-140.210281,0.071947,-0.555726,0.183164,-6.015237,-1.651546,14.530449
760,2092513083,-1.163739,-1.912504,-139.947571,0.139974,-0.327815,0.156395,-5.754692,-1.753575,15.138686
761,2092529750,-1.236539,-1.940522,-139.677200,0.069450,-0.204701,0.119070,-5.298812,-1.914154,15.589142
762,2092546417,-1.301119,-1.970332,-139.399734,0.009524,-0.175974,0.125942,-4.782722,-2.050433,16.018084
763,2092563084,-1.355856,-1.999760,-139.117050,-0.021107,-0.096395,0.117316,-4.172441,-2.051848,16.326237
764,2092579751,-1.398477,-2.031274,-138.831390,0.039061,-0.046168,0.052011,-3.429890,-2.195484,16.498726
765,2092596418,-1.427289,-2.063469,-138.547958,0.068898,0.027131,0.080241,-2.596311,-2.243828,16.362698
766,2092613085,-1.439121,-2.095439,-138.269775,0.001130,0.010942,0.068635,-1.579229,-2.228601,16.047813
767,2092629752,-1.435388,-2.129146,-137.997391,-0.004008,0.038739,0.056943,-0.647976,-2.325481,15.698761
768,2092646419,-1.418497,-2.162559,-137.732071,0.135983,0.176172,0.090728,0.135382,-2.294298,15.270389
769,2092663086,-1.388962,-2.194635,-137.471924,0.240673,0.158161,0.081225,0.891713,-2.200568,14.965993
770,2092679753,-1.353092,-2.226590,-137.216400,0.399709,0.166178,0.043055,1.269898,-2.178259,14.691129
771,2092696420,-1.318889,-2.257797,-136.967758,0.581084,0.187054,0.096002,1.162132,-2.114970,14.280671
772,2092713087,-1.297572,-2.288014,-136.725494,0.760326,0.169988,0.068757,0.381444,-2.040335,13.899439
773,2092729754,-1.296613,-2.314328,-136.492172,0.863661,0.143530,0.060749,-0.854888,-1.792084,13.368526
774,2092746421,-1.324857,-2.337738,-136.266403,0.853163,0.180666,0.097945,-2.620091,-1.611719,12.918753
775,2092763088,-1.383617,-2.358577,-136.050491,0.853950,0.239755,0.105585,-4.470801,-1.454623,12.332145
776,2092779755,-1.474447,-2.377202,-135.842636,0.904041,0.393530,0.063539,-6.411196,-1.327481,11.850267
777,2092796422,-1.585920,-2.392101,-135.643066,0.937730,0.512054,0.075230,-7.667500,-1.113884,11.357453
778,2092813089,-1.711828,-2.402221,-135.451691,0.891915,0.605003,0.072238,-8.552220,-0.839220,10.869703
779,2092829756,-1.844006,-2.408462,-135.269012,0.823708,0.757152,0.122712,-8.949133,-0.617727,10.356803
780,2092846423,-1.978964,-2.410905,-135.093964,0.768103,0.881397,0.124338,-9.134841,-0.401748,9.907608
781,2092863090,-2.108354,-2.409267,-134.926041,0.630235,0.882961,0.150405,-8.818956,-0.167686,9.486176
782,2092879757,-2.228631,-2.403693,-134.768005,0.530684,0.906065,0.171276,-8.297777,0.067227,8.902999
783,2092896424,-2.335739,-2.393854,-134.620209,0.505713,0.918541,0.208487,-7.534542,0.326748,8.300970
784,2092913091,-2.426591,-2.383077,-134.484467,0.427956,0.911756,0.265120,-6.590918,0.396171,7.580689
785,2092929758,-2.502699,-2.369571,-134.362549,0.382051,0.926713,0.301110,-5.742407,0.581940,6.762644
786,2092946425,-2.564827,-2.351900,-134.254684,0.352518,0.895495,0.352897,-4.940243,0.858570,5.925916
787,2092963092,-2.614006,-2.333333,-134.159485,0.275318,0.863163,0.372906,-4.195937,0.938686,5.174835
788,2092979759,-2.649757,-2.310571,-134.076065,0.095307,0.772230,0.423437,-3.420858,1.216917,4.482446
789,2092996426,-2.668290,-2.287110,-134.001587,-0.099411,0.660080,0.467265,-2.410975,1.280053,3.948166
790,2093013093,-2.666996,-2.262581,-133.930664,-0.125832,0.693175,0.486629,-1.231074,1.352498,3.739435
791,2093029760,-2.642107,-2.238023,-133.867493,-0.128383,0.642841,0.556599,0.165208,1.375716,3.274219
792,2093046427,-2.595744,-2.211531,-133.806549,-0.119725,0.618812,0.504613,1.447278,1.499323,3.146207
793,2093063094,-2.530713,-2.182300,-133.749451,-0.119589,0.515471,0.541242,2.557434,1.676473,2.919905
794,2093079761,-2.450259,-2.152176,-133.692688,-0.146782,0.369992,0.537590,3.480785,1.734639,2.898621
795,2093096428,-2.353774,-2.120828,-133.637283,-0.185934,0.201641,0.550003,4.438220,1.816184,2.822430
796,2093113095,-2.248689,-2.089653,-133.579895,-0.224735,0.023791,0.540861,4.957166,1.806803,2.935555
797,2093129762,-2.140368,-2.058538,-133.522705,-0.237311,-0.157959,0.496157,5.149453,1.810133,2.923184
798,2093146429,-2.031678,-2.026187,-133.465485,-0.270726,-0.315178,0.410678,5.170007,1.891235,2.921212
799,2093163096,-1.928873,-1.994750,-133.413345,-0.307566,-0.512903,0.361219,4.804501,1.853828,2.612463
800,2093179763,-1.826473,-1.964866,-133.370804,-0.454206,-0.711906,0.323024,4.758884,1.786095,2.029659
801,2093196430,-1.724361,-1.934592,-133.341919,-0.631651,-0.796066,0.283770,4.712628,1.840587,1.213383
802,2093213097,-1.613001,-1.905218,-133.330673,-0.689217,-0.847444,0.256338,5.231478,1.822286,0.145448
803,2093229764,-1.487539,-1.878563,-133.337448,-0.827657,-0.927366,0.174593,6.042068,1.691213,-0.939833
804,2093246431,-1.342919,-1.853142,-133.366608,-1.033822,-0.994918,0.187285,7.148646,1.651161,-2.289238
805,2093263098,-1.169260,-1.828852,-133.419449,-1.181900,-1.012452,0.175385,8.846956,1.611571,-3.709066
806,2093279765,-0.952172,-1.802456,-133.499008,-1.224643,-0.902655,0.073740,11.404183,1.758896,-5.316610
807,2093296432,-0.677849,-1.779263,-133.602905,-1.379336,-0.827053,0.067899,14.795632,1.568965,-6.789818
808,2093313099,-0.335970,-1.759360,-133.730728,-1.450248,-0.823532,-0.035008,18.808233,1.352730,-8.234354
809,2093329766,0.080828,-1.745786,-133.878952,-1.488219,-0.832420,-0.008244,23.269592,0.926842,-9.466679
810,2093346433,0.576255,-1.734169,-134.048019,-1.511667,-0.894259,-0.054788,27.952461,0.733428,-10.721445
811,2093363100,1.150336,-1.726130,-134.242172,-1.453215,-0.944945,-0.064013,32.629391,0.403395,-12.232179
812,2093379767,1.796786,-1.720756,-134.463562,-1.436908,-0.794036,-0.131580,36.924770,0.079483,-13.862590
813,2093396434,2.505462,-1.719004,-134.713654,-1.349648,-0.743022,-0.150345,40.608543,-0.357556,-15.575953
814,2093413101,3.262413,-1.719478,-134.992096,-1.107456,-0.814260,-0.147068,43.455284,-0.766492,-17.262297
815,2093429768,4.048434,-1.722095,-135.298782,-0.765855,-0.847906,-0.142235,45.148560,-1.225821,-18.932262
816,2093446435,4.840221,-1.726792,-135.629410,-0.493204,-0.868998,-0.090972,45.450356,-1.712621,-20.336624
817,2093463102,5.619457,-1.729837,-135.981384,-0.337411,-0.913889,-0.054265,44.656876,-1.999806,-21.595840
818,2093479769,6.360693,-1.733932,-136.350906,-0.236577,-0.964708,-0.000987,42.343071,-2.449414,-22.604044
819,2093496436,7.042836,-1.738655,-136.737000,-0.110707,-0.978105,0.110028,38.764690,-2.875149,-23.557543
820,2093513103,7.648232,-1.744774,-137.134552,0.099250,-0.984899,0.167450,34.135735,-3.302292,-24.189003
821,2093529770,8.163100,-1.751959,-137.544739,0.248481,-0.913863,0.290912,28.677271,-3.699646,-24.899986
822,2093546437,8.576550,-1.763146,-137.962219,0.269064,-0.788772,0.340963,22.572767,-4.196876,-25.266701
823,2093563104,8.889392,-1.777846,-138.383362,0.304283,-0.646693,0.339105,16.522635,-4.594319,-25.426220
824,2093579771,9.100923,-1.799055,-138.804031,0.377500,-0.506488,0.403595,10.435303,-5.088758,-25.314333
825,2093596438,9.206342,-1.830125,-139.221039,0.494113,-0.492257,0.480765,4.062754,-5.705832,-24.987885
826,2093613105,9.198154,-1.869563,-139.626526,0.612061,-0.417641,0.441034,-2.748377,-6.111844,-24.223675
827,2093629772,9.078317,-1.916436,-140.014862,0.759595,-0.207577,0.504021,-9.433424,-6.361979,-23.139938
828,2093646439,8.854095,-1.971226,-140.380371,0.816761,0.160825,0.541170,-15.671988,-6.550362,-21.730381
829,2093663106,8.540142,-2.030625,-140.719513,0.872440,0.449815,0.492803,-21.024031,-6.485744,-20.153185
830,2093679773,8.165399,-2.097131,-141.033035,0.726846,0.574640,0.455642,-24.639828,-6.568605,-18.613008
831,2093696440,7.748265,-2.168031,-141.319687,0.650172,0.748840,0.437775,-27.146757,-6.483315,-17.024927
832,2093713107,7.308612,-2.240228,-141.575882,0.574978,0.914104,0.397700,-28.449413,-6.199564,-15.249729
833,2093729774,6.862424,-2.311466,-141.798294,0.553923,0.944389,0.361200,-28.780844,-5.780859,-13.294244
834,2093746441,6.431518,-2.380785,-141.986862,0.303004,0.910684,0.342196,-27.797590,-5.335732,-11.335000
835,2093763108,6.039001,-2.445574,-142.138504,0.159066,0.668875,0.344907,-25.413729,-4.749209,-9.201848
836,2093779775,5.701834,-2.505648,-142.258331,0.096132,0.467580,0.325718,-22.020254,-4.218945,-7.361860
837,2093796442,5.429193,-2.558702,-142.347839,0.110401,0.437262,0.319272,-18.075275,-3.588203,-5.618806
838,2093813109,5.219077,-2.604345,-142.409531,0.185795,0.512727,0.247535,-14.253094,-2.970320,-4.013500
839,2093829776,5.067356,-2.638109,-142.445953,0.193508,0.623656,0.225194,-10.682471,-2.114918,-2.578815
840,2093846443,4.963283,-2.660587,-142.459610,0.320495,0.689688,0.131242,-7.761456,-1.317697,-1.283658
841,2093863110,4.899805,-2.671751,-142.458694,0.386867,0.618442,0.127137,-5.285092,-0.566566,-0.474322
842,2093879777,4.870788,-2.675104,-142.446945,0.470577,0.292053,0.168803,-3.187180,-0.045680,0.133321
843,2093896444,4.867899,-2.667938,-142.429108,0.476472,0.141589,0.132464,-1.602715,0.613239,0.446397
844,2093913111,4.875381,-2.649772,-142.409012,0.491681,0.220969,0.156849,-0.975076,1.281666,0.524017
845,2093929778,4.887315,-2.620584,-142.389709,0.465145,0.324174,0.087870,-0.710752,1.935930,0.420388
846,2093946445,4.897044,-2.584481,-142.374054,0.430407,0.413377,0.072706,-0.854132,2.329699,0.165080
847,2093963112,4.901724,-2.543813,-142.361588,0.372547,0.378257,0.130195,-1.166415,2.585365,-0.049676
848,2093979779,4.897870,-2.499709,-142.349640,0.349960,0.346024,0.180577,-1.680628,2.787308,-0.095126
849,2093996446,4.880218,-2.450583,-142.339264,0.383334,0.334392,0.176625,-2.513170,3.078551,-0.213251
850,2094013113,4.847676,-2.395416,-142.332230,0.349836,0.277668,0.220257,-3.415825,3.421504,-0.445494
851,2094029780,4.799775,-2.336621,-142.330414,0.249464,0.174485,0.113720,-4.351137,3.611039,-0.773734
852,2094046447,4.737272,-2.277599,-142.332306,0.178581,0.128030,0.189218,-5.236402,3.605865,-0.991429
853,2094063114,4.663032,-2.216878,-142.338898,0.093598,0.036997,0.179166,-5.951611,3.684471,-1.276729
854,2094079781,4.575920,-2.153592,-142.349533,0.070255,-0.046276,0.187033,-6.732811,3.818989,-1.526248
855,2094096448,4.478649,-2.091053,-142.361847,0.013710,-0.083677,0.164350,-7.345403,3.767648,-1.617788
856,2094113115,4.372271,-2.030189,-142.377335,-0.089560,-0.092830,0.205984,-7.897985,3.654914,-1.790879
857,2094129782,4.261521,-1.972338,-142.393799,-0.234823,-0.228607,0.225835,-8.161400,3.472398,-1.827633
858,2094146449,4.154479,-1.917683,-142.406662,-0.348078,-0.370682,0.188245,-7.930372,3.299768,-1.591484
859,2094163116,4.053982,-1.866221,-142.412674,-0.363529,-0.359288,0.296741,-7.523271,3.140611,-1.161152
860,2094179783,3.959993,-1.824807,-142.409332,-0.290739,-0.413891,0.233828,-7.114262,2.579949,-0.558216
861,2094196450,3.871682,-1.786872,-142.390488,-0.255165,-0.595713,0.299237,-6.744259,2.435890,0.387911
862,2094213117,3.782480,-1.756637,-142.358170,-0.282120,-0.788016,0.294857,-6.773510,2.028212,1.231273
863,2094229784,3.684413,-1.733726,-142.309509,-0.244330,-0.938433,0.356256,-7.276711,1.651642,2.236188
864,2094246451,3.574166,-1.718682,-142.245575,-0.199619,-0.937915,0.298975,-7.981188,1.234898,3.187085
865,2094263118,3.445102,-1.712844,-142.162811,-0.171861,-0.909234,0.295539,-9.077451,0.746053,4.349608
866,2094279785,3.294200,-1.715094,-142.061935,-0.051353,-1.022973,0.373970,-10.355795,0.314633,5.462557
867,2094296452,3.123298,-1.725090,-141.941544,0.076949,-1.118390,0.308161,-11.520611,-0.099531,6.657301
868,2094313119,2.929543,-1.741261,-141.803940,0.071821,-1.040972,0.317449,-12.859787,-0.436735,7.708563
869,2094329786,2.715184,-1.767528,-141.645508,0.027030,-1.003773,0.368722,-14.055264,-1.008322,8.983479
870,2094346453,2.478175,-1.799873,-141.469681,0.019686,-0.864839,0.306476,-15.377666,-1.361944,10.040428
871,2094363120,2.220677,-1.836299,-141.279022,0.091923,-0.638800,0.290792,-16.572992,-1.614832,10.931869
872,2094379787,1.947770,-1.875530,-141.072845,0.135174,-0.570370,0.241673,-17.460075,-1.801882,11.856962
873,2094396454,1.665428,-1.918264,-140.859055,0.013958,-0.462367,0.166296,-18.002544,-2.057267,12.310886
874,2094413121,1.378365,-1.964748,-140.639191,-0.047863,-0.312591,0.177379,-18.263550,-2.335921,12.671206
875,2094429788,1.093273,-2.010074,-140.411179,0.009900,-0.111822,0.132519,-18.117624,-2.321808,13.148769
876,2094446455,0.813214,-2.056592,-140.179199,0.141343,0.018466,0.064631,-17.796057,-2.456941,13.370526
877,2094463122,0.539528,-2.102105,-139.945450,0.192169,0.072881,0.040496,-17.398596,-2.463165,13.461794
878,2094479789,0.273107,-2.149523,-139.712585,0.153015,0.187468,0.039828,-16.953127,-2.644196,13.399799
879,2094496456,0.018341,-2.195451,-139.483749,0.071717,0.217932,0.059598,-16.251385,-2.619556,13.146065
880,2094513123,-0.222627,-2.234613,-139.259964,0.019942,0.156825,0.048696,-15.424591,-2.272861,12.833639
881,2094529790,-0.447165,-2.271114,-139.043015,-0.033891,0.200861,0.080336,-14.445604,-2.165620,12.416495
882,2094546457,-0.650262,-2.303721,-138.833298,0.024184,0.332960,0.080682,-13.168324,-1.976624,11.971140
883,2094563124,-0.828119,-2.334767,-138.633270,0.009598,0.454068,0.095575,-11.669834,-1.917996,11.388344
884,2094579791,-0.981504,-2.361439,-138.443359,0.102657,0.439971,0.069596,-10.219666,-1.681283,10.778107
885,2094596458,-1.113299,-2.383698,-138.263062,0.163748,0.438651,0.037869,-8.942987,-1.435132,10.202767
886,2094613125,-1.224526,-2.400374,-138.092285,0.190156,0.375894,-0.004107,-7.728752,-1.112258,9.636368
887,2094629792,-1.313151,-2.409992,-137.935425,0.269670,0.384851,0.019159,-6.405060,-0.689072,8.809498
888,2094646459,-1.384984,-2.417320,-137.790894,0.298759,0.498072,0.081404,-5.427180,-0.548432,8.077371
889,2094663126,-1.444431,-2.419768,-137.658340,0.378611,0.570645,0.051857,-4.713531,-0.248968,7.363851
890,2094679793,-1.491654,-2.417014,-137.539490,0.531885,0.710321,0.103936,-4.014740,0.075449,6.551466
891,2094696460,-1.528167,-2.408444,-137.435379,0.545656,0.725863,0.169101,-3.410165,0.440737,5.676088
892,2094713127,-1.553603,-2.397749,-137.344238,0.429968,0.642587,0.153712,-2.779465,0.584232,4.902611
893,2094729794,-1.566545,-2.384300,-137.266998,0.335151,0.582171,0.210341,-2.065729,0.768925,4.072977
894,2094746461,-1.563933,-2.369689,-137.199234,0.348051,0.582886,0.285041,-1.157041,0.852359,3.505950
895,2094763128,-1.547605,-2.350935,-137.141464,0.371320,0.608598,0.274559,-0.360025,1.116682,2.915334
896,2094779795,-1.516848,-2.329226,-137.092606,0.429660,0.621378,0.297158,0.482524,1.308264,2.385688
897,2094796462,-1.477169,-2.306960,-137.052795,0.392249,0.556854,0.334177,0.994868,1.356289,1.844851
898,2094813129,-1.429636,-2.284592,-137.020340,0.357652,0.656289,0.377799,1.447214,1.374205,1.402596
899,2094829796,-1.373745,-2.260930,-136.997406,0.398774,0.773570,0.389187,1.925223,1.466372,0.831087
900,2094846463,-1.302942,-2.236850,-136.982910,0.402698,0.728134,0.375343,2.799641,1.503177,0.325697
901,2094863130,-1.212260,-2.212710,-136.975067,0.409644,0.685566,0.381261,3.976570,1.515356,-0.077888
902,2094879797,-1.103523,-2.188036,-136.972015,0.475204,0.575714,0.404133,5.048488,1.552610,-0.364072
903,2094896464,-0.975645,-2.164173,-136.972641,0.444015,0.551187,0.381503,6.188241,1.507109,-0.588823
904,2094913131,-0.835734,-2.141834,-136.972504,0.357181,0.539778,0.392633,6.911748,1.413700,-0.549111
905,2094929798,-0.685703,-2.120947,-136.976379,0.356334,0.588223,0.413847,7.509869,1.328729,-0.793520
906,2094946465,-0.533459,-2.100262,-136.981583,0.353148,0.601416,0.431941,7.639738,1.315539,-0.877081
907,2094963132,-0.383155,-2.077891,-136.989090,0.376494,0.534905,0.397776,7.518373,1.415800,-1.020615
908,2094979799,-0.236771,-2.055558,-136.996750,0.347539,0.440025,0.446833,7.282838,1.411305,-1.031257
909,2094996466,-0.096696,-2.035939,-137.004761,0.259657,0.252877,0.482161,6.903667,1.246397,-1.055051
910,2095013133,0.033592,-2.016217,-137.012543,0.179032,0.095111,0.468059,6.316906,1.250739,-1.042565
911,2095029800,0.155501,-1.996335,-137.017700,0.118337,0.031407,0.528829,5.819687,1.259191,-0.887749
912,2095046467,0.268580,-1.977482,-137.021881,0.005907,-0.080900,0.474288,5.291859,1.196798,-0.834257
913,2095063134,0.374062,-1.956467,-137.024216,-0.058922,-0.190845,0.424157,4.840051,1.326642,-0.725172
914,2095079801,0.474553,-1.935785,-137.026520,-0.108467,-0.223804,0.431564,4.540550,1.306600,-0.727580
915,2095096468,0.571789,-1.917688,-137.031494,-0.166961,-0.299141,0.388922,4.339963,1.150106,-0.887160
916,2095113135,0.671274,-1.900637,-137.041000,-0.239010,-0.368131,0.336767,4.466043,1.084384,-1.160332
917,2095129802,0.773824,-1.884722,-137.057983,-0.420780,-0.460982,0.250705,4.635355,1.010069,-1.609835
918,2095146469,0.881828,-1.869907,-137.083130,-0.597032,-0.487784,0.234045,4.947164,0.935959,-2.098167
919,2095163136,1.001113,-1.855925,-137.119873,-0.727211,-0.532330,0.163071,5.602312,0.872593,-2.796036
920,2095179803,1.139091,-1.841007,-137.170837,-0.852198,-0.605044,0.099134,6.697537,0.908899,-3.652410
921,2095196470,1.302897,-1.829093,-137.237579,-1.006806,-0.654007,0.126884,8.218472,0.701961,-4.592576
922,2095213137,1.499822,-1.816945,-137.325058,-1.036934,-0.593208,0.060914,10.167752,0.674338,-5.842105
923,2095229804,1.738117,-1.805701,-137.430573,-1.107661,-0.526738,-0.013103,12.617805,0.571016,-6.926832
924,2095246471,2.023342,-1.795575,-137.554047,-1.145519,-0.645871,-0.018507,15.402094,0.441147,-8.000546
925,2095263138,2.354267,-1.786346,-137.694183,-1.149529,-0.647109,-0.078841,18.115114,0.310881,-8.999047
926,2095279805,2.727700,-1.780213,-137.850372,-1.045825,-0.610104,-0.066015,20.637669,0.032342,-9.953984
927,2095296472,3.134222,-1.776058,-138.022263,-0.938609,-0.600116,-0.127724,22.595747,-0.196552,-10.889007
928,2095313139,3.565225,-1.775359,-138.211487,-0.863566,-0.598911,-0.063657,24.033449,-0.538137,-11.912854
929,2095329806,4.008662,-1.778171,-138.417618,-0.633760,-0.620064,-0.062523,24.748381,-0.900724,-12.906453
930,2095346473,4.453232,-1.782993,-138.637985,-0.453002,-0.594519,-0.022267,24.789061,-1.178072,-13.739882
931,2095363140,4.886777,-1.790254,-138.873398,-0.317954,-0.617089,-0.001950,24.098207,-1.497438,-14.620872
932,2095379807,5.296500,-1.802475,-139.123108,-0.126140,-0.619085,0.046995,22.639372,-1.972414,-15.437568
933,2095396474,5.675275,-1.819455,-139.383118,-0.051419,-0.512283,0.038636,20.758472,-2.416859,-16.009182
934,2095413141,6.014285,-1.838513,-139.652542,0.071294,-0.320411,0.093437,18.349060,-2.694359,-16.541229
935,2095429808,6.306821,-1.860878,-139.925354,0.153440,-0.223970,0.055932,15.547672,-3.000930,-16.704479
936,2095446475,6.546703,-1.886890,-140.197617,0.161813,-0.207319,0.080125,12.381948,-3.290135,-16.637177
937,2095463142,6.728902,-1.915650,-140.469849,0.215185,-0.220046,0.155077,8.912789,-3.512722,-16.603928
938,2095479809,6.852597,-1.946893,-140.739441,0.180538,-0.159010,0.173267,5.398466,-3.684622,-16.417427
939,2095496476,6.916556,-1.981612,-141.004974,0.107430,-0.142949,0.175408,1.812836,-3.888511,-16.144547
940,2095513143,6.929379,-2.019708,-141.264023,0.106277,-0.051808,0.231379,-1.252206,-4.053200,-15.731540
941,2095529810,6.893886,-2.058942,-141.513565,0.114373,0.138098,0.300660,-4.142230,-4.049691,-15.156982
942,2095546477,6.815973,-2.102439,-141.751617,0.164995,0.316686,0.351051,-6.673101,-4.207402,-14.445973
943,2095563144,6.697149,-2.147863,-141.977997,0.214380,0.356249,0.344172,-9.113020,-4.217097,-13.747284
944,2095579811,6.541484,-2.195452,-142.193237,0.261811,0.445255,0.352633,-11.309415,-4.238317,-13.077665
945,2095596478,6.351954,-2.244753,-142.399780,0.260233,0.497879,0.358061,-13.332145,-4.244811,-12.557090
946,2095613145,6.133343,-2.293855,-142.595932,0.266876,0.586469,0.318090,-15.062992,-4.123932,-11.957113
947,2095629812,5.892597,-2.341518,-142.780624,0.191715,0.661067,0.378935,-16.373211,-3.921540,-11.296766
948,2095646479,5.638656,-2.386527,-142.949875,0.188082,0.707995,0.399228,-17.135563,-3.624997,-10.408006
949,2095663146,5.385499,-2.429687,-143.101929,0.255251,0.692637,0.386935,-17.052485,-3.373069,-9.406969
950,2095679813,5.142395,-2.470939,-143.239059,0.241198,0.716715,0.325841,-16.417696,-3.140326,-8.543728
951,2095696480,4.916944,-2.508346,-143.361008,0.232061,0.714603,0.352227,-15.324531,-2.799317,-7.667516
952,2095713147,4.711065,-2.540223,-143.468567,0.189446,0.639251,0.293004,-14.116142,-2.371072,-6.847112
953,2095729814,4.525142,-2.564794,-143.566437,0.172854,0.594104,0.307176,-12.895989,-1.867218,-6.312151
954,2095746481,4.358486,-2.585385,-143.654572,0.180840,0.579495,0.327804,-11.715882,-1.567255,-5.752423
955,2095763148,4.211873,-2.600314,-143.734665,0.207422,0.529263,0.291139,-10.492707,-1.179376,-5.301742
956,2095779815,4.083686,-2.611225,-143.808029,0.237403,0.455144,0.351734,-9.369909,-0.899531,-4.922019
957,2095796482,3.969860,-2.618496,-143.876938,0.211680,0.436488,0.350905,-8.496580,-0.654789,-4.669811
958,2095813149,3.867191,-2.618695,-143.943756,0.269171,0.439554,0.321259,-7.821622,-0.216107,-4.576735
959,2095829816,3.768367,-2.613483,-144.007111,0.297145,0.419408,0.320219,-7.581143,0.127699,-4.391976
960,2095846483,3.668320,-2.605376,-144.068375,0.261033,0.393598,0.295977,-7.648645,0.314902,-4.276989
961,2095863150,3.567830,-2.592809,-144.129333,0.234136,0.381088,0.293715,-7.673668,0.588599,-4.275170
962,2095879817,3.466352,-2.576192,-144.189667,0.238747,0.351097,0.266395,-7.730298,0.839220,-4.249174
963,2095896484,3.362648,-2.558057,-144.252731,0.250123,0.359847,0.299734,-7.870056,0.926085,-4.421137
964,2095913151,3.258554,-2.537515,-144.317551,0.245470,0.446379,0.273178,-7.897049,1.070361,-4.529593
965,2095929818,3.154664,-2.513049,-144.384048,0.238516,0.436071,0.250127,-7.887484,1.305883,-4.641650
966,2095946485,3.048352,-2.486321,-144.452774,0.242142,0.376900,0.265305,-8.036884,1.440798,-4.780100
967,2095963152,2.941500,-2.457393,-144.524216,0.219490,0.320364,0.223248,-8.074240,1.571090,-4.947760
968,2095979819,2.831106,-2.427516,-144.599838,0.222116,0.338890,0.225348,-8.295239,1.622981,-5.196626
969,2095996486,2.720091,-2.396640,-144.677444,0.199113,0.400587,0.216640,-8.335220,1.685054,-5.317338
970,2096013153,2.611567,-2.364345,-144.759811,0.168300,0.431422,0.177079,-8.194915,1.765042,-5.604496
971,2096029820,2.505057,-2.331307,-144.844711,0.185346,0.449696,0.167381,-8.077429,1.811376,-5.753613
972,2096046487,2.399163,-2.296039,-144.931992,0.269257,0.444464,0.197777,-8.043030,1.947686,-5.896416
973,2096063154,2.295006,-2.261321,-145.020737,0.269070,0.397677,0.152114,-7.938979,1.919948,-5.980567
974,2096079821,2.188314,-2.227212,-145.113419,0.281266,0.388629,0.180132,-8.097329,1.883207,-6.210339
975,2096096488,2.080188,-2.193829,-145.208786,0.282938,0.420515,0.195218,-8.186193,1.843302,-6.369125
976,2096113155,1.972325,-2.162258,-145.306229,0.290303,0.464180,0.142142,-8.171850,1.740287,-6.483345
977,2096129822,1.868227,-2.132782,-145.407104,0.266369,0.475063,0.190632,-7.950492,1.617743,-6.684776
978,2096146489,1.774112,-2.103885,-145.510193,0.188804,0.418257,0.163925,-7.353511,1.588366,-6.809649
979,2096163156,1.693314,-2.076633,-145.612137,0.158344,0.331402,0.205028,-6.548643,1.500591,-6.736206
980,2096179823,1.631280,-2.050878,-145.714081,0.208756,0.305155,0.237570,-5.419930,1.417798,-6.732350
981,2096196490,1.584729,-2.029493,-145.813705,0.247863,0.267044,0.189034,-4.483645,1.164629,-6.587485
982,2096213157,1.555018,-2.009742,-145.909607,0.144814,0.075077,0.231415,-3.463234,1.076047,-6.359723
983,2096229824,1.543133,-1.993735,-145.998703,0.010518,-0.114865,0.239566,-2.377922,0.864294,-5.943440
984,2096246491,1.546926,-1.979445,-146.079773,-0.033691,-0.186190,0.259968,-1.419078,0.774771,-5.459636
985,2096263158,1.568619,-1.968335,-146.152191,-0.075442,-0.303493,0.278800,-0.326319,0.597282,-4.937116
986,2096279825,1.605292,-1.958316,-146.216537,-0.084594,-0.331476,0.237427,0.589675,0.543431,-4.451053
987,2096296492,1.654675,-1.951892,-146.267593,-0.029372,-0.260500,0.234163,1.379929,0.348032,-3.646813
988,2096313159,1.717885,-1.948843,-146.301804,0.038229,-0.354381,0.223191,2.243935,0.172636,-2.634650
989,2096329826,1.795812,-1.946499,-146.316879,-0.003668,-0.566118,0.183705,3.165608,0.163377,-1.484832
990,2096346493,1.882778,-1.948312,-146.309601,-0.002707,-0.747288,0.240018,3.753137,-0.043529,-0.137591
991,2096363160,1.975387,-1.953956,-146.280930,0.070509,-0.951818,0.157567,4.134653,-0.228491,1.152450
992,2096379827,2.060446,-1.962024,-146.229736,0.122836,-1.057418,0.208054,3.727167,-0.322387,2.507643
993,2096396494,2.129897,-1.973799,-146.157425,0.061544,-1.145736,0.194361,2.833706,-0.493019,3.781620
994,2096413161,2.175693,-1.989532,-146.059860,0.010235,-1.338723,0.190391,1.466667,-0.667582,5.304115
995,2096429828,2.191222,-2.008111,-145.936127,0.073495,-1.524534,0.233249,-0.293919,-0.773632,6.875839
996,2096446495,2.172119,-2.029252,-145.786316,0.089044,-1.632367,0.231371,-2.315760,-0.866081,8.444848
997,2096463162,2.115180,-2.054477,-145.610611,0.044373,-1.637315,0.291923,-4.528134,-1.056729,10.008351
998,2096479829,2.019551,-2.082331,-145.408188,-0.017728,-1.415342,0.217691,-6.788395,-1.168734,11.608497
999,2096496496,1.888862,-2.114792,-145.182281,0.070523,-1.146416,0.226982,-8.835044,-1.419098,13.022301
1000,2096513163,1.736885,-2.149223,-144.935257,0.036650,-0.895654,0.131033,-10.058248,-1.529285,14.288759
1001,2096529830,1.577162,-2.184930,-144.670731,-0.053106,-0.660753,0.083865,-10.474774,-1.614729,15.334757
1002,2096546497,1.419523,-2.221689,-144.392838,-0.107109,-0.479896,0.072765,-10.309188,-1.700032,16.134274
1003,2096563164,1.269589,-2.258236,-144.105118,-0.125070,-0.250908,0.021341,-9.813147,-1.717602,16.718191
1004,2096579831,1.129908,-2.293253,-143.807449,-0.091619,-0.152749,0.041463,-9.163085,-1.656568,17.311398
1005,2096596498,1.000291,-2.327376,-143.508255,-0.036724,0.046469,0.058800,-8.544791,-1.643108,17.390181
1006,2096613165,0.881056,-2.361493,-143.210312,0.042693,0.150485,0.073511,-7.913694,-1.682910,17.314817
1007,2096629832,0.775740,-2.393759,-142.919556,0.087875,0.257437,0.074272,-7.085863,-1.613640,16.877052
1008,2096646499,0.686465,-2.424741,-142.639450,0.070289,0.316286,0.067541,-6.140138,-1.574811,16.238998
1009,2096663166,0.614080,-2.454937,-142.371109,0.013363,0.327121,0.112041,-5.147632,-1.559840,15.527499
1010,2096679833,0.557284,-2.483530,-142.113602,-0.023144,0.304157,0.142446,-4.231491,-1.489034,14.872175
1011,2096696500,0.509898,-2.509657,-141.863724,-0.043161,0.331431,0.103392,-3.678921,-1.359843,14.414486
1012,2096713167,0.472009,-2.534748,-141.622833,0.139876,0.445842,0.173596,-3.125660,-1.313907,13.873198
1013,2096729834,0.443050,-2.559034,-141.393372,0.273300,0.524616,0.219247,-2.613611,-1.280303,13.186638
1014,2096746501,0.417989,-2.579489,-141.174438,0.303588,0.582832,0.171535,-2.402408,-1.062736,12.553961
1015,2096763168,0.394932,-2.598076,-140.966019,0.357753,0.611637,0.203404,-2.305874,-0.961770,11.922840
1016,2096779835,0.372644,-2.614966,-140.771149,0.327368,0.530042,0.206234,-2.292696,-0.871613,11.109161
1017,2096796502,0.351654,-2.627475,-140.587402,0.404242,0.493590,0.189167,-2.242175,-0.618393,10.441360
1018,2096813169,0.332785,-2.636308,-140.417923,0.457626,0.596874,0.211306,-2.152236,-0.407908,9.581636
1019,2096829836,0.319651,-2.640554,-140.263962,0.431326,0.701319,0.238024,-1.849852,-0.142138,8.653720
1020,2096846503,0.312851,-2.641996,-140.127762,0.349136,0.678318,0.278993,-1.518347,0.017282,7.586425
1021,2096863170,0.312595,-2.636974,-140.007233,0.224766,0.619790,0.282199,-1.169271,0.398053,6.644530
1022,2096879837,0.317926,-2.627907,-139.901657,0.111546,0.523120,0.297646,-0.875737,0.635137,5.748060
1023,2096896504,0.325716,-2.615836,-139.806946,0.095162,0.451001,0.328821,-0.758789,0.811455,5.095897
1024,2096913171,0.337019,-2.600637,-139.723206,0.174102,0.478664,0.320281,-0.578988,0.995470,4.439365
1025,2096929838,0.352722,-2.582207,-139.650024,0.212028,0.518232,0.367061,-0.345029,1.185900,3.802161
1026,2096946505,0.370075,-2.561194,-139.586105,0.186292,0.587133,0.296576,-0.272045,1.337591,3.251449
1027,2096963172,0.391207,-2.536275,-139.532272,0.201895,0.581402,0.330595,-0.073726,1.568170,2.637999
1028,2096979839,0.416494,-2.511022,-139.485107,0.147263,0.506106,0.364112,0.156756,1.585637,2.234996
1029,2096996506,0.451784,-2.483430,-139.443634,0.064180,0.474192,0.315776,0.741187,1.724010,1.896371
1030,2097013173,0.502448,-2.455044,-139.404556,0.067985,0.547589,0.340153,1.656367,1.771470,1.748022
1031,2097029840,0.571959,-2.427461,-139.366608,0.028986,0.591235,0.331232,2.783620,1.724202,1.682607
1032,2097046507,0.662034,-2.401033,-139.329926,0.107383,0.557348,0.308650,4.013645,1.656303,1.604437
1033,2097063174,0.767389,-2.372951,-139.292633,0.211281,0.497714,0.276670,4.931322,1.758805,1.636876
1034,2097079841,0.884102,-2.346203,-139.253983,0.221116,0.441008,0.306284,5.615207,1.683363,1.715814
1035,2097096508,1.008256,-2.318654,-139.214142,0.227644,0.410915,0.277758,6.063545,1.736548,1.785340
1036,2097113175,1.133693,-2.293863,-139.173172,0.270940,0.414272,0.277121,6.142106,1.576577,1.849557
1037,2097129842,1.255329,-2.269548,-139.130096,0.372321,0.402408,0.258646,5.918072,1.555114,1.975508
1038,2097146509,1.368304,-2.244290,-139.086334,0.455652,0.349379,0.243738,5.398792,1.616923,2.010194
1039,2097163176,1.467731,-2.219583,-139.041565,0.404985,0.368543,0.228870,4.586832,1.589377,2.070601
1040,2097179843,1.555724,-2.196591,-138.998016,0.322357,0.444896,0.221300,3.896480,1.487925,1.995031
1041,2097196510,1.636612,-2.174326,-138.954224,0.319064,0.590128,0.209217,3.469771,1.447751,2.012511
1042,2097213177,1.716501,-2.152211,-138.912964,0.312277,0.565089,0.180882,3.403063,1.436700,1.856261
1043,2097229844,1.795971,-2.131527,-138.872177,0.395682,0.439703,0.156324,3.375991,1.352447,1.828702
1044,2097246511,1.872468,-2.111176,-138.833862,0.459763,0.311153,0.207971,3.191016,1.330010,1.681532
1045,2097263178,1.940144,-2.087863,-138.796265,0.242073,0.211523,0.180424,2.659078,1.508223,1.630485
1046,2097279845,1.994330,-2.067020,-138.756271,0.157810,0.162728,0.151311,1.853815,1.366969,1.776247
1047,2097296512,2.039950,-2.046856,-138.714447,-0.024174,0.159797,0.224599,1.342829,1.331611,1.885486
1048,2097313179,2.075585,-2.029351,-138.670059,-0.068140,0.080009,0.155362,0.748717,1.179356,2.043669
1049,2097329846,2.108923,-2.010313,-138.624329,0.043418,0.173293,0.190914,0.613098,1.275724,2.121826
1050,2097346513,2.147510,-1.991345,-138.578873,0.143530,0.206960,0.219778,0.926674,1.272356,2.105332
1051,2097363180,2.193024,-1.971692,-138.537537,0.113904,0.125344,0.193851,1.332878,1.305601,1.857132
1052,2097379847,2.246577,-1.954302,-138.501511,0.015318,0.035923,0.232543,1.803345,1.159429,1.541647
1053,2097396514,2.300691,-1.938823,-138.472534,-0.164637,-0.109641,0.301931,1.822004,1.029919,1.120024
1054,2097413181,2.347015,-1.923345,-138.450836,-0.316653,-0.262835,0.280960,1.339973,1.014141,0.687451
1055,2097429848,2.383060,-1.906971,-138.439774,-0.423007,-0.295385,0.319299,0.701769,1.043071,0.046724
1056,2097446515,2.412474,-1.888844,-138.438934,-0.380294,-0.263799,0.279988,0.283603,1.123405,-0.573673
1057,2097463182,2.442980,-1.871395,-138.450317,-0.413854,-0.140055,0.233037,0.325633,1.052355,-1.304481
1058,2097479849,2.486427,-1.856372,-138.474075,-0.540384,-0.191791,0.170527,1.078532,0.874911,-2.042984
1059,2097496516,2.549964,-1.844382,-138.514130,-0.694429,-0.256074,0.256922,2.253386,0.649532,-3.008891
1060,2097513183,2.639166,-1.836096,-138.571411,-0.811511,-0.356465,0.264111,3.761334,0.378473,-4.031273
1061,2097529850,2.759656,-1.828714,-138.645493,-0.856897,-0.384095,0.236652,5.607754,0.271578,-5.037750
1062,2097546517,2.927131,-1.822531,-138.737350,-0.811488,-0.367342,0.222766,8.394341,0.136765,-6.098386
1063,2097563184,3.150498,-1.817820,-138.846558,-0.917653,-0.416825,0.199581,11.716159,-0.024486,-7.132232
1064,2097579851,3.433430,-1.815272,-138.970749,-0.999622,-0.528432,0.208547,15.263040,-0.233191,-8.022827
1065,2097596518,3.768456,-1.816166,-139.108154,-1.029393,-0.603578,0.235383,18.364468,-0.527827,-8.796797
1066,2097613185,4.136837,-1.821481,-139.256241,-0.837252,-0.710311,0.219635,20.346067,-0.885279,-9.414207
1067,2097629852,4.526321,-1.826547,-139.415344,-0.674919,-0.760887,0.249208,21.590963,-0.977318,-10.069613
1068,2097646519,4.927139,-1.832997,-139.585632,-0.679612,-0.651643,0.199734,22.248819,-1.179378,-10.724917
1069,2097663186,5.336409,-1.841884,-139.770828,-0.721001,-0.572199,0.214202,22.726515,-1.475282,-11.593564
1070,2097679853,5.744957,-1.854254,-139.968079,-0.586321,-0.488510,0.227679,22.658243,-1.830672,-12.284583
1071,2097696520,6.135321,-1.870044,-140.175400,-0.313975,-0.537735,0.318145,21.545126,-2.177174,-12.845963
1072,2097713187,6.484092,-1.886642,-140.396133,-0.015521,-0.716126,0.340927,19.019497,-2.392231,-13.627265
1073,2097729854,6.768794,-1.903108,-140.628738,0.186374,-0.673691,0.388568,15.147459,-2.537851,-14.322351
1074,2097746521,6.980133,-1.922626,-140.876053,0.332672,-0.493871,0.389533,10.711147,-2.883609,-15.162351
1075,2097763188,7.123497,-1.946993,-141.136520,0.316171,-0.345276,0.316369,6.599010,-3.314607,-15.903428
1076,2097779855,7.205824,-1.972341,-141.408630,0.240522,-0.293391,0.308396,2.905668,-3.489504,-16.579823
1077,2097796522,7.239897,-2.001724,-141.686066,0.244432,-0.324348,0.334463,-0.009323,-3.786047,-16.861330
1078,2097813189,7.231277,-2.035544,-141.965012,0.327464,-0.224001,0.267011,-2.583735,-4.065149,-16.920713
1079,2097829856,7.184206,-2.074660,-142.240829,0.304271,-0.012084,0.350224,-4.895476,-4.348990,-16.693121
1080,2097846523,7.100403,-2.116000,-142.512238,0.337611,0.240468,0.264982,-7.101694,-4.430401,-16.419464
1081,2097863190,6.983709,-2.161610,-142.774826,0.292621,0.441224,0.238770,-9.068252,-4.592760,-15.871379
1082,2097879857,6.844670,-2.208430,-143.028412,0.135415,0.666940,0.164852,-10.401292,-4.566532,-15.334444
1083,2097896524,6.698456,-2.258215,-143.268906,0.262509,0.758975,0.156988,-10.813592,-4.614927,-14.546099
1084,2097913191,6.558982,-2.309114,-143.492538,0.252305,0.754630,0.182971,-10.381158,-4.531275,-13.546865
1085,2097929858,6.430925,-2.358033,-143.695236,0.261350,0.640670,0.124478,-9.656483,-4.242082,-12.321038
1086,2097946525,6.312674,-2.403909,-143.872314,0.184093,0.472833,0.084605,-9.014192,-3.865894,-10.822424
1087,2097963192,6.204229,-2.444896,-144.026611,0.154830,0.460229,0.114500,-8.375640,-3.405979,-9.503367
1088,2097979859,6.108643,-2.482288,-144.157242,0.183922,0.486645,0.066612,-7.549424,-3.024682,-8.123123
1089,2097996526,6.025178,-2.512393,-144.268234,0.264939,0.521184,0.035625,-6.775266,-2.454466,-7.004244
1090,2098013193,5.951712,-2.538441,-144.361740,0.297145,0.486875,0.036691,-6.132347,-2.095132,-5.989839
1091,2098029860,5.888336,-2.557605,-144.440186,0.272106,0.456214,0.003777,-5.488790,-1.585695,-5.137524
1092,2098046527,5.834032,-2.568265,-144.504364,0.309618,0.508540,0.057682,-4.907522,-0.986973,-4.339176
1093,2098063194,5.790526,-2.573116,-144.557510,0.347400,0.486179,0.036447,-4.230526,-0.571279,-3.718990
1094,2098079861,5.754305,-2.570201,-144.602173,0.279025,0.443238,0.018661,-3.770523,-0.055234,-3.259216
1095,2098096528,5.721659,-2.560806,-144.641617,0.218306,0.455414,0.043234,-3.541814,0.363656,-2.986787
1096,2098113195,5.690045,-2.544163,-144.676117,0.238561,0.469571,0.012854,-3.465744,0.826272,-2.735833
1097,2098129862,5.661521,-2.522395,-144.707016,0.268911,0.484160,0.062189,-3.270089,1.154166,-2.545877
1098,2098146529,5.633770,-2.496997,-144.734436,0.222419,0.563061,0.101351,-3.213856,1.391147,-2.364385
1099,2098163196,5.608400,-2.467037,-144.757065,0.278744,0.521509,0.102618,-3.057388,1.691764,-2.103443
1100,2098179863,5.581967,-2.433035,-144.776352,0.359060,0.448399,0.098563,-3.111904,1.952219,-1.926690
1101,2098196530,5.548576,-2.397047,-144.794876,0.386923,0.437042,0.149733,-3.526497,2.075071,-1.891652
1102,2098213197,5.500330,-2.358535,-144.811493,0.363266,0.455741,0.164514,-4.412531,2.236879,-1.791800
1103,2098229864,5.432569,-2.315101,-144.826492,0.365113,0.394283,0.170695,-5.579010,2.540300,-1.720277
1104,2098246531,5.345505,-2.270142,-144.840179,0.382564,0.334137,0.233586,-6.733133,2.639434,-1.647588
1105,2098263198,5.239867,-2.224253,-144.852859,0.346161,0.296755,0.234681,-7.844927,2.701263,-1.591727
1106,2098279865,5.115645,-2.177085,-144.865768,0.347840,0.341122,0.278862,-8.960003,2.778024,-1.601575
1107,2098296532,4.969771,-2.129191,-144.880432,0.269456,0.387076,0.234033,-10.262540,2.813851,-1.705755
1108,2098313199,4.802168,-2.079073,-144.897186,0.211530,0.456963,0.264763,-11.570005,2.938617,-1.832001
1109,2098329866,4.615991,-2.029021,-144.914291,0.192384,0.366491,0.250547,-12.684325,2.935787,-1.847407
1110,2098346533,4.414970,-1.980031,-144.936035,0.159364,0.301270,0.293643,-13.583512,2.854070,-2.107785
1111,2098363200,4.198399,-1.932528,-144.961212,0.126072,0.231680,0.326222,-14.522526,2.754641,-2.295719
1112,2098379867,3.969307,-1.888110,-144.990433,0.125236,0.194893,0.358845,-15.280560,2.559088,-2.514017
1113,2098396534,3.727384,-1.844976,-145.019669,0.050420,0.185784,0.382065,-16.049007,2.489729,-2.498815
1114,2098413201,3.478262,-1.805068,-145.048187,0.010793,0.011927,0.433784,-16.478367,2.307175,-2.433926
1115,2098429868,3.228728,-1.769976,-145.071426,-0.036702,-0.290519,0.515698,-16.491854,2.045464,-2.090805
1116,2098446535,2.982888,-1.741300,-145.090042,-0.148478,-0.510320,0.590005,-16.261288,1.682711,-1.788280
1117,2098463202,2.737365,-1.717983,-145.101639,-0.268064,-0.537928,0.603910,-16.229155,1.388709,-1.341466
1118,2098479869,2.489828,-1.696686,-145.103714,-0.276729,-0.482864,0.535874,-16.332787,1.297880,-0.761287
1119,2098496536,2.237856,-1.680314,-145.092224,-0.211854,-0.521517,0.471000,-16.574913,1.037872,0.070185
1120,2098513203,1.981923,-1.669991,-145.063782,-0.140489,-0.700693,0.430053,-16.783157,0.710618,1.104670
1121,2098529870,1.718691,-1.666950,-145.014938,-0.109910,-0.879469,0.475471,-17.186077,0.306847,2.343162
1122,2098546537,1.439870,-1.669064,-144.945206,-0.110801,-0.991712,0.493078,-18.085520,0.019664,3.605754
1123,2098563204,1.142182,-1.673876,-144.857224,-0.056929,-1.042183,0.504669,-19.185970,-0.137067,4.707691
1124,2098579871,0.822728,-1.682633,-144.750046,-0.099265,-0.990562,0.466530,-20.458395,-0.381118,5.860265
1125,2098596538,0.482611,-1.694958,-144.624786,0.021151,-1.090544,0.474701,-21.665655,-0.618509,6.942764
1126,2098613205,0.120661,-1.711232,-144.480026,0.131920,-1.177583,0.417795,-22.940088,-0.893860,8.108851
1127,2098629872,-0.266634,-1.731281,-144.314316,0.145265,-1.320942,0.401734,-24.421318,-1.177329,9.358550
1128,2098646539,-0.680325,-1.756716,-144.129959,0.171501,-1.272735,0.380215,-25.968149,-1.577516,10.467651
1129,2098663206,-1.118042,-1.783475,-143.927612,0.255887,-1.047595,0.378649,-27.372671,-1.754399,11.531097
1130,2098679873,-1.572197,-1.810735,-143.707504,0.089150,-0.949677,0.325912,-28.320902,-1.902390,12.580149
1131,2098696540,-2.030912,-1.838786,-143.471893,-0.066840,-0.902799,0.273566,-28.559273,-2.082678,13.491261
1132,2098713207,-2.474935,-1.868631,-143.219971,-0.033362,-0.733978,0.219619,-27.639578,-2.338102,14.449626
1133,2098729874,-2.885340,-1.898006,-142.956024,-0.147674,-0.463364,0.138361,-25.591238,-2.454716,15.154409
1134,2098746541,-3.243941,-1.930248,-142.676758,-0.323070,-0.373260,0.078364,-22.443972,-2.780266,16.043304
1135,2098763208,-3.532258,-1.962875,-142.385208,-0.419695,-0.291867,0.117080,-18.192102,-2.939794,16.760239
1136,2098779875,-3.747843,-1.994174,-142.080170,-0.433728,-0.121151,0.100457,-13.790082,-2.987099,17.558388
1137,2098796542,-3.889327,-2.025419,-141.765854,-0.200518,0.074202,-0.017851,-9.313713,-3.076960,18.104599
1138,2098813209,-3.952308,-2.058485,-141.451233,-0.001755,0.176434,0.002861,-4.592196,-3.220263,18.108681
1139,2098829876,-3.938944,-2.092565,-141.141815,-0.162885,0.259009,-0.012926,-0.011475,-3.267787,17.789776
1140,2098846543,-3.860284,-2.128169,-140.839813,-0.237681,0.190965,-0.012295,3.901837,-3.314274,17.345253
1141,2098863210,-3.717272,-2.162780,-140.548050,-0.078142,0.195012,0.038696,7.751711,-3.179692,16.743406
1142,2098879877,-3.519094,-2.195094,-140.271286,0.043674,0.317210,-0.026987,11.037903,-2.933785,15.859884
1143,2098896544,-3.283745,-2.227701,-140.007782,0.112988,0.350007,-0.072411,13.247309,-2.842565,15.077865
1144,2098913211,-3.025230,-2.261758,-139.759003,0.210644,0.244881,-0.013892,14.611829,-2.813777,14.201129
1145,2098929878,-2.760278,-2.296363,-139.524384,0.275442,0.150359,0.026733,14.973455,-2.736721,13.364220
1146,2098946545,-2.502897,-2.328737,-139.306580,0.345086,0.138841,0.029032,14.486553,-2.493630,12.380791
1147,2098963212,-2.261433,-2.360577,-139.105240,0.534905,0.188124,0.006614,13.498069,-2.364695,11.404612
1148,2098979879,-2.038573,-2.389370,-138.921890,0.647155,0.248181,0.000949,12.343201,-2.093430,10.341297
1149,2098996546,-1.838645,-2.414820,-138.756393,0.657196,0.291473,-0.005734,10.926906,-1.817440,9.287563
1150,2099013213,-1.663986,-2.437227,-138.607559,0.630180,0.356035,0.073828,9.371711,-1.572787,8.294082
1151,2099029880,-1.516542,-2.456148,-138.472382,0.604788,0.482080,0.072886,7.706973,-1.317262,7.494682
1152,2099046547,-1.395517,-2.470729,-138.350021,0.618327,0.498765,0.140397,6.090425,-1.019539,6.731063
1153,2099063214,-1.295642,-2.481100,-138.237564,0.552993,0.535714,0.074183,4.797125,-0.740246,6.147927
1154,2099079881,-1.209496,-2.487703,-138.133865,0.509374,0.571170,0.125822,3.951125,-0.492788,5.627592
1155,2099096548,-1.123919,-2.489806,-138.037155,0.375155,0.607157,0.152572,3.899323,-0.206323,5.218339
1166,2099279885,0.075474,-2.367254,-137.080658,0.262517,0.433685,0.350879,6.699342,0.804668,5.134316
1167,2099296552,0.206602,-2.356049,-136.981995,0.313649,0.404435,0.325554,6.624835,0.714511,5.336887
1168,2099313219,0.331933,-2.345122,-136.881973,0.275080,0.434143,0.374735,6.279205,0.710631,5.417837
1170,2099346553,0.569762,-2.327818,-136.678864,0.341079,0.497290,0.320971,5.789131,0.543995,5.504201
