sep=,
DeviceTag:,Xsens DOT
FirmwareVersion:,2.2.1
AppVersion:,2023.6.0
SyncStatus:,Synced
OutputRate:,60Hz
FilterProfile:,General
Measurement Mode:,Custom modes - custom mode1
StartTime: ,2023-12-12_15:43:44_532 CET
© Movella Technologies B. V. 2005-2023

PacketCounter,SampleTimeFine,Euler_X,Euler_Y,Euler_Z,FreeAcc_X,FreeAcc_Y,FreeAcc_Z,Gyr_X,Gyr_Y,Gyr_Z
1,2079879497,-120.576157,-58.592674,-137.324997,0.299772,0.073471,0.029901,0.474264,2.034730,2.102796
2,2079896164,-120.551750,-58.586441,-137.409714,0.243042,-0.031657,0.096594,-0.420202,0.624009,2.174793
3,2079912831,-120.560394,-58.576046,-137.477509,0.178362,-0.107917,0.329268,-1.537069,0.041204,2.120853
4,2079929498,-120.535561,-58.570717,-137.548416,0.173202,-0.031438,0.328819,0.313788,0.279492,1.907679
5,2079946165,-120.479828,-58.569946,-137.657349,0.292906,0.072802,0.186314,0.222466,1.445177,2.275682
6,2079962832,-120.401985,-58.574841,-137.780487,0.334929,0.187145,0.022758,0.817293,2.001324,2.207224
7,2079979499,-120.343506,-58.584835,-137.899979,0.339874,0.219356,-0.021720,-0.154739,2.060945,1.879390
8,2079996166,-120.323563,-58.591499,-138.013260,0.320227,0.128561,0.061921,-2.145563,1.791551,1.949261
9,2080012833,-120.306816,-58.598347,-138.135284,0.334048,0.048966,0.130457,-2.789928,2.033591,2.077248
10,2080029500,-120.318207,-58.597763,-138.230911,0.318102,-0.008219,0.121585,-3.124916,1.095667,2.044361
11,2080046167,-120.343239,-58.591835,-138.296310,0.314126,0.063774,0.147822,-2.396850,0.117786,1.846247
12,2080062834,-120.363976,-58.583954,-138.345627,0.355890,0.076949,0.090620,-1.315225,-0.376199,1.692276
13,2080079501,-120.394882,-58.570580,-138.403595,0.335457,0.018053,0.168369,-2.369008,-0.309440,2.116038
14,2080096168,-120.476044,-58.551689,-138.407928,0.315759,-0.107337,0.253256,-2.637583,-1.923834,1.551073
15,2080112835,-120.556557,-58.537434,-138.414719,0.331086,-0.085125,0.309288,-2.715356,-1.716576,1.347337
16,2080129502,-120.583878,-58.538902,-138.447906,0.328576,0.019113,0.206234,-0.889094,-0.530362,0.961174
17,2080146169,-120.580147,-58.554337,-138.519180,0.361050,0.036078,0.076779,-0.963050,0.924202,0.841294
18,2080162836,-120.621002,-58.560955,-138.539673,0.315636,-0.014286,0.033947,-1.048072,-0.713813,0.489529
19,2080179503,-120.725960,-58.552219,-138.501053,0.321138,-0.010533,0.138685,-1.865975,-2.776276,0.338568
20,2080196170,-120.819191,-58.547775,-138.503891,0.312356,-0.094239,0.193986,-3.278195,-1.528873,0.776737
21,2080212837,-120.906204,-58.538937,-138.480072,0.205684,0.053425,0.256602,-1.546853,-2.379830,0.576830
22,2080229504,-120.995438,-58.518009,-138.391647,0.324922,0.128220,0.113258,1.624172,-4.488267,0.156385
23,2080246171,-121.107094,-58.507942,-138.372223,0.318377,-0.059130,0.115469,-3.249099,-2.300584,0.707916
24,2080262838,-121.182228,-58.498390,-138.347870,0.201087,-0.091832,0.160134,-0.807760,-2.416468,0.598281
25,2080279505,-121.299271,-58.446899,-138.286484,0.224521,0.322563,0.341312,-1.427844,-4.717194,2.147824
26,2080296172,-121.403801,-58.378803,-138.256302,0.285248,0.179274,0.222192,-2.273985,-4.402695,3.499252
27,2080312839,-121.565063,-58.291996,-138.203949,0.277624,0.013171,0.115342,-4.540377,-5.593981,4.081378
28,2080329506,-121.774490,-58.189495,-138.083313,0.256767,0.019382,0.118820,-3.953770,-7.938877,3.735991
29,2080346173,-121.946198,-58.104568,-138.002899,0.221723,0.054672,0.183474,-3.750109,-6.321266,3.487586
30,2080362840,-122.015945,-58.042328,-138.005737,0.207735,0.025246,0.214783,-1.874914,-3.368211,3.718279
31,2080379507,-122.046684,-57.980751,-138.028351,0.314291,0.108364,0.179227,-0.536439,-2.819845,4.013923
32,2080396174,-122.071327,-57.926144,-138.073929,0.359262,0.094229,0.125403,-1.337188,-1.976917,4.048184
33,2080412841,-122.118973,-57.877331,-138.103485,0.278521,-0.005080,0.070888,-1.902985,-2.226000,3.485703
34,2080429508,-122.207901,-57.825653,-138.062744,0.253263,-0.026773,0.091156,-0.807953,-4.218707,2.433815
35,2080446175,-122.270523,-57.790325,-138.063278,0.313117,-0.054922,0.237290,-1.326559,-2.583899,2.304881
36,2080462842,-122.250443,-57.772491,-138.158310,0.266071,-0.023731,0.263064,-1.162215,0.532046,3.030015
37,2080479509,-122.260048,-57.734047,-138.217422,0.292129,0.034086,0.211160,-1.115664,-1.097786,3.461870
38,2080496176,-122.288322,-57.694191,-138.279617,0.285148,0.046392,0.090891,-2.392124,-1.059533,3.587065
39,2080512843,-122.292503,-57.661289,-138.345413,0.260976,0.047852,0.110339,-1.131928,-0.737761,3.299563
40,2080529510,-122.321999,-57.620262,-138.393890,0.229751,0.035757,0.197935,-1.771502,-1.468043,3.413808
41,2080546177,-122.342010,-57.584976,-138.453217,0.177906,-0.049237,0.236749,-1.748964,-0.987754,3.310961
42,2080562844,-122.344673,-57.551456,-138.515228,0.216827,-0.050794,0.253613,-0.840276,-0.858320,3.268341
43,2080579511,-122.347389,-57.510563,-138.577591,0.270135,0.039750,0.183414,-0.870986,-1.081445,3.651507
44,2080596178,-122.348473,-57.470680,-138.657684,0.232323,-0.012849,0.068284,-1.657705,-0.566489,3.904265
45,2080612845,-122.379478,-57.422550,-138.701172,0.196220,-0.015475,0.081491,-1.605148,-1.827428,3.692692
46,2080629512,-122.419899,-57.375313,-138.733704,0.236456,-0.070915,0.155021,-1.617378,-2.097232,3.460410
47,2080646179,-122.437523,-57.327690,-138.792343,0.263387,-0.098333,0.197103,-1.567036,-1.396174,3.931684
48,2080662846,-122.431786,-57.282043,-138.872589,0.272228,-0.031846,0.155767,-1.250860,-0.741091,4.208122
49,2080679513,-122.421387,-57.235371,-138.961533,0.300047,0.009469,0.081584,-1.407687,-0.532795,4.414035
50,2080696180,-122.433914,-57.182796,-139.019852,0.327958,0.044551,0.107942,-1.234187,-1.560800,4.178981
51,2080712847,-122.468613,-57.128574,-139.062988,0.287504,0.029845,0.158236,-1.798921,-2.031932,3.999775
52,2080729514,-122.488533,-57.080139,-139.145630,0.298994,-0.073007,0.238469,-2.897988,-0.753782,4.396606
53,2080746181,-122.514786,-57.028797,-139.233063,0.226065,0.050549,0.244832,-3.522835,-0.716631,4.634484
54,2080762848,-122.549850,-56.964111,-139.265778,0.309889,0.064235,0.164770,-1.289420,-2.654386,4.347008
55,2080779515,-122.593315,-56.925278,-139.365784,0.247787,-0.174025,0.032856,-5.178710,0.033828,4.226538
56,2080796182,-122.566010,-56.904018,-139.491989,0.174330,-0.166518,0.102460,-2.249397,1.329434,3.802045
57,2080812849,-122.555710,-56.874657,-139.595215,0.137788,0.112628,0.242184,-2.112355,0.436550,3.805987
58,2080829516,-122.584030,-56.820957,-139.652023,0.196294,0.031524,0.188784,-2.098820,-1.631901,4.220455
59,2080846183,-122.651405,-56.772118,-139.699097,0.256578,-0.132308,0.139817,-3.951258,-1.744071,3.803083
60,2080862850,-122.742081,-56.720135,-139.694992,0.265072,-0.046258,0.162363,-2.773190,-3.268258,3.051107
61,2080879517,-122.843109,-56.683495,-139.695679,0.241952,-0.035391,0.169965,-3.637542,-2.640644,2.361024
62,2080896184,-122.897041,-56.673374,-139.723221,0.155479,-0.091974,0.184879,-2.160764,-1.035970,1.503958
63,2080912851,-122.929649,-56.664768,-139.729340,0.199878,-0.025688,0.236597,0.193702,-1.580636,1.042494
64,2080929518,-122.967079,-56.660168,-139.749603,0.242767,-0.018485,0.220958,-0.806749,-1.058048,1.096230
65,2080946185,-122.989632,-56.660866,-139.787918,0.299051,-0.043804,0.137503,-0.816943,-0.384959,1.151131
66,2080962852,-123.035126,-56.657532,-139.797516,0.318215,-0.022334,0.065889,-0.754704,-1.313112,0.841806
67,2080979519,-123.086006,-56.657936,-139.837646,0.344429,-0.020880,0.110377,-2.608090,-0.346168,1.203688
68,2080996186,-123.093140,-56.677860,-139.945557,0.238777,-0.042266,0.225260,-3.378136,2.162448,1.441540
69,2081012853,-123.085434,-56.684624,-140.023438,0.283737,0.002296,0.284521,-0.983131,0.903674,1.558936
70,2081029520,-123.070229,-56.700447,-140.143433,0.298141,-0.096108,0.261150,-2.647623,2.362471,1.864406
71,2081046187,-123.023918,-56.719894,-140.285263,0.289176,-0.074805,0.185146,-1.878230,3.082981,2.070562
72,2081062854,-122.989990,-56.726616,-140.434067,0.293201,0.025181,0.107045,-2.974057,2.861316,2.831541
73,2081079521,-122.949074,-56.741138,-140.613373,0.164487,-0.055830,0.086861,-4.080641,3.954467,2.980365
74,2081096188,-122.899284,-56.761356,-140.766464,0.061817,-0.073709,0.083495,-2.236066,3.418291,2.222485
75,2081112855,-122.848320,-56.774803,-140.884003,0.093215,-0.029162,0.118574,-0.378735,2.213033,1.919345
76,2081129522,-122.773727,-56.793217,-141.012283,0.131979,0.021044,0.158320,0.494344,2.672256,1.857657
77,2081146189,-122.689034,-56.815651,-141.137177,0.108608,0.051816,0.088404,1.270409,2.709574,1.586444
78,2081162856,-122.639053,-56.832344,-141.220688,0.153404,0.042210,0.033526,1.260548,1.382401,1.141539
79,2081179523,-122.567047,-56.854069,-141.299316,0.204444,-0.008647,0.127645,2.828916,1.406425,0.793859
80,2081196190,-122.445908,-56.888573,-141.415436,0.280348,-0.005686,0.224702,3.892458,2.853646,0.801133
81,2081212857,-122.270622,-56.939434,-141.593796,0.308615,-0.050552,0.159930,4.006256,5.097882,1.051959
82,2081229524,-122.135574,-56.977665,-141.749725,0.330332,-0.033100,0.078784,2.716345,4.070045,1.279540
83,2081246191,-122.016006,-57.017014,-141.874771,0.327127,-0.004427,0.057965,3.338609,3.246250,0.673249
84,2081262858,-121.892448,-57.075230,-142.008804,0.391153,0.004359,0.030384,3.123886,4.091777,-0.144776
85,2081279525,-121.828148,-57.125389,-142.079254,0.333503,0.092731,0.091630,2.767318,2.067617,-0.842530
86,2081296192,-121.803802,-57.160423,-142.041306,0.430231,0.002186,0.154552,5.828420,-1.411106,-1.934284
87,2081312859,-121.723671,-57.258846,-142.200836,0.352916,-0.283792,0.069014,-0.775617,6.047025,-1.791148
88,2081329526,-121.538727,-57.388458,-142.431732,0.281509,-0.142699,-0.022512,1.893336,8.978797,-2.194190
89,2081346193,-121.512260,-57.435635,-142.452087,0.268533,0.222547,0.037805,3.014301,0.572514,-1.566959
90,2081362860,-121.593704,-57.440353,-142.357224,0.328200,0.166930,0.122187,2.375777,-3.933381,-1.343053
91,2081379527,-121.625305,-57.484962,-142.352646,0.269319,-0.099915,0.158446,0.796241,-0.191749,-1.855896
92,2081396194,-121.571976,-57.563320,-142.380875,0.253656,-0.013861,0.165123,4.233248,1.766028,-3.026359
93,2081412861,-121.450493,-57.674145,-142.492859,0.291213,0.009412,0.193160,4.074936,5.074279,-3.285815
94,2081429528,-121.304283,-57.790230,-142.651413,0.259639,0.000250,0.080170,3.186867,6.492942,-2.797650
95,2081446195,-121.175873,-57.885628,-142.793320,0.281096,0.030789,0.072493,2.957031,5.373744,-2.038694
96,2081462862,-121.055077,-57.972084,-142.942093,0.315866,0.072149,0.111636,2.147503,5.269384,-1.490979
97,2081479529,-120.966820,-58.045925,-143.066803,0.361204,0.066297,0.052774,1.410831,4.211593,-1.252154
98,2081496196,-120.908325,-58.112595,-143.166229,0.344627,0.037279,0.023994,0.908233,3.292276,-1.305736
99,2081512863,-120.855827,-58.181000,-143.275528,0.307327,-0.044095,0.089743,0.041742,3.607658,-1.242575
100,2081529530,-120.756897,-58.266739,-143.436722,0.303960,-0.038128,0.233320,0.176901,5.538830,-1.308156
101,2081546197,-120.641891,-58.346764,-143.592361,0.305901,0.045585,0.241243,1.415364,5.199884,-1.120543
102,2081562864,-120.530899,-58.422905,-143.756577,0.378640,-0.029182,0.206573,0.732888,5.301605,-0.802805
103,2081579531,-120.429649,-58.501549,-143.915375,0.373405,0.011331,0.125641,0.412333,5.217327,-1.032768
104,2081596198,-120.371979,-58.575451,-144.048645,0.346896,0.047118,0.122328,-0.895497,4.374937,-1.210520
105,2081612865,-120.347443,-58.647373,-144.157852,0.285351,-0.008842,0.270362,-1.655375,3.654926,-1.497037
106,2081629532,-120.322456,-58.715660,-144.264282,0.314386,0.039195,0.289791,-1.492516,3.465380,-1.355936
107,2081646199,-120.269730,-58.783783,-144.395187,0.376009,0.071271,0.296658,-1.088310,4.112692,-0.970331
108,2081662866,-120.160088,-58.875801,-144.589996,0.401303,0.093373,0.303580,-0.955546,6.537175,-1.222225
109,2081679533,-120.043320,-58.986271,-144.763031,0.387559,0.174671,0.264732,0.582017,6.489421,-2.543572
110,2081696200,-119.949936,-59.100056,-144.889618,0.391527,0.199154,0.168660,1.558309,5.326783,-3.455910
111,2081712867,-119.860397,-59.217701,-144.996414,0.404332,0.175441,0.256557,2.336128,4.898436,-3.976193
112,2081729534,-119.793762,-59.337875,-145.084717,0.414875,0.130678,0.245141,1.906782,4.465952,-4.404296
113,2081746201,-119.712715,-59.461044,-145.181412,0.388457,0.134345,0.200112,2.337243,4.763035,-4.447941
114,2081762868,-119.626404,-59.580170,-145.273010,0.372904,0.154067,0.191480,2.913003,4.491988,-4.328726
115,2081779535,-119.562927,-59.690575,-145.348511,0.354636,0.106287,0.192997,2.367913,3.794771,-4.123068
116,2081796202,-119.523705,-59.801285,-145.455505,0.323120,0.063761,0.165163,-0.718359,4.619142,-3.681250
117,2081812869,-119.537971,-59.881840,-145.468246,0.206495,0.125625,0.281807,0.953145,1.247755,-3.514549
118,2081829536,-119.573784,-59.957497,-145.490707,0.343400,-0.043959,0.229282,-0.843465,1.359580,-3.113941
119,2081846203,-119.490936,-60.072376,-145.671524,0.234584,-0.177928,0.050903,-1.959718,6.647900,-2.819255
120,2081862870,-119.484489,-60.159630,-145.768158,0.198645,0.076227,0.062023,-2.170997,3.625318,-2.632358
121,2081879537,-119.592857,-60.192123,-145.703644,0.214220,0.268072,0.161253,-0.675189,-2.181088,-2.141580
122,2081896204,-119.678032,-60.230869,-145.660736,0.258760,-0.044757,0.216733,-0.405820,-1.429611,-2.150071
123,2081912871,-119.664177,-60.307518,-145.685852,0.253256,-0.166455,0.234126,1.994532,1.460212,-3.124238
124,2081929538,-119.594124,-60.407124,-145.775330,0.288576,-0.059905,0.257860,2.006621,3.797281,-3.378469
125,2081946205,-119.504868,-60.519085,-145.928650,0.203433,-0.076313,0.276407,-0.177983,5.791026,-3.103338
126,2081962872,-119.403412,-60.623508,-146.085907,0.163198,-0.037201,0.383656,0.341360,5.649118,-2.670662
127,2081979539,-119.306534,-60.716358,-146.211594,0.251735,0.095222,0.338761,1.712984,4.483202,-2.543213
128,2081996206,-119.214630,-60.810211,-146.334076,0.311297,0.109197,0.259431,1.569988,4.416187,-2.652400
129,2082012873,-119.139114,-60.907951,-146.436310,0.271570,0.061745,0.211987,1.648017,4.000224,-3.161914
130,2082029540,-119.065582,-61.015583,-146.510284,0.202493,0.139463,0.312329,2.995642,3.557572,-4.087301
131,2082046207,-118.918266,-61.153927,-146.639755,0.312124,0.107580,0.295391,4.511275,5.841842,-4.936465
132,2082062874,-118.728920,-61.288025,-146.767120,0.361477,0.135358,0.215067,7.129808,5.637356,-4.767311
133,2082079541,-118.524940,-61.418045,-146.860458,0.406049,0.107953,0.334884,9.801351,4.627429,-5.057652
134,2082096208,-118.318031,-61.562130,-146.941269,0.393223,-0.060341,0.229782,10.626708,4.682740,-5.994130
135,2082112875,-118.018051,-61.737194,-147.092636,0.262958,0.042300,0.152779,12.476745,7.294049,-6.719037
136,2082129542,-117.689888,-61.911915,-147.297104,0.186393,0.049946,-0.042577,11.349298,8.552453,-6.057332
137,2082146209,-117.279785,-62.113693,-147.588882,0.126071,-0.097201,-0.151214,11.621423,11.409669,-6.439820
138,2082162876,-116.853706,-62.371212,-147.982468,-0.068401,-0.061212,-0.277777,7.137571,15.358935,-8.244802
139,2082179543,-116.427368,-62.626755,-148.443405,-0.173699,-0.018473,-0.135861,3.524997,16.824587,-7.470120
140,2082196210,-116.116074,-62.823711,-148.740860,0.294172,-0.069118,-0.091067,5.286804,11.098674,-6.464752
141,2082212877,-115.857193,-62.969715,-149.000961,0.601445,-0.228618,0.087365,4.110334,8.764688,-4.247983
142,2082229544,-115.667633,-63.065048,-149.219620,0.662263,-0.343530,0.081553,2.158287,6.381591,-2.056086
143,2082246211,-115.524551,-63.126781,-149.417725,0.470951,-0.229368,0.128103,0.465293,4.984885,-0.511358
144,2082262878,-115.383507,-63.169388,-149.636337,0.274691,0.021869,0.151296,-0.763386,4.979487,0.747231
145,2082279545,-115.223434,-63.193329,-149.894577,0.170990,0.055056,0.126040,-1.747516,5.466627,2.197089
146,2082296212,-115.010918,-63.207466,-150.187851,0.162216,0.099781,0.075839,-0.473771,6.077389,3.105777
147,2082312879,-114.822151,-63.206860,-150.404938,0.414754,0.240746,-0.066815,2.176215,3.842373,3.016389
148,2082329546,-114.780266,-63.180717,-150.389542,0.575705,0.197869,-0.061343,5.820531,-2.503437,1.755488
149,2082346213,-114.722389,-63.172306,-150.397827,0.494021,-0.134695,0.096191,5.507633,-1.475804,1.058938
150,2082362880,-114.587234,-63.180267,-150.499420,0.304153,-0.138946,0.138676,5.146277,1.231337,1.220938
151,2082379547,-114.449974,-63.169632,-150.577255,0.211730,0.166452,0.109255,6.545141,0.184636,1.963489
152,2082396214,-114.352173,-63.122253,-150.591583,0.237191,0.159062,0.020695,7.584634,-2.288496,3.255369
153,2082412881,-114.172928,-63.079235,-150.712860,0.151299,-0.212325,-0.073429,6.747519,0.471805,4.212643
154,2082429548,-113.883911,-63.049553,-150.897827,0.077698,-0.235760,0.016852,9.925175,2.399904,4.180884
155,2082446215,-113.496490,-63.043186,-151.169312,0.202128,-0.146854,0.146951,11.202956,5.138864,3.823306
156,2082462882,-113.089310,-63.040871,-151.471939,0.290994,-0.079907,0.127896,10.726201,6.036462,3.890347
157,2082479549,-112.652412,-63.037891,-151.793274,0.397993,-0.003497,0.186298,11.509130,6.516644,4.070393
158,2082496216,-112.239784,-63.025696,-152.114975,0.363924,0.064804,-0.027740,10.035592,6.340101,4.526503
159,2082512883,-111.849617,-62.990704,-152.459717,0.211681,0.050133,-0.071683,7.461719,6.442320,5.976476
160,2082529550,-111.522102,-62.937340,-152.777832,0.247358,-0.017946,-0.112383,5.134753,5.407464,6.688138
161,2082546217,-111.250801,-62.858093,-153.044540,0.287347,0.037192,-0.034241,4.514758,3.583031,7.593815
162,2082562884,-110.996330,-62.765354,-153.297485,0.346434,0.038830,0.129860,4.248066,2.991378,8.197507
163,2082579551,-110.716057,-62.690277,-153.589111,0.158193,0.035430,0.040696,3.746300,4.416072,7.572121
164,2082596218,-110.454018,-62.606266,-153.893250,-0.142581,0.036036,-0.026263,1.997797,4.603967,8.174583
165,2082612885,-110.249458,-62.510082,-154.196411,-0.208201,-0.109731,-0.066400,-1.383739,4.379267,8.833752
166,2082629552,-110.131996,-62.394405,-154.435684,-0.035360,-0.071818,-0.118608,-3.195749,2.360064,9.316167
167,2082646219,-110.043709,-62.275486,-154.673767,0.179494,-0.108785,-0.007217,-4.870513,2.303857,9.487261
168,2082662886,-110.001793,-62.152115,-154.870590,0.300746,-0.172777,0.184191,-5.451025,1.164463,9.348288
169,2082679553,-110.005333,-62.020126,-155.020096,0.425757,-0.050633,0.175732,-5.660268,-0.236316,9.387424
170,2082696220,-110.004601,-61.888065,-155.172287,0.395021,-0.110927,0.018287,-5.534125,-0.151563,9.424664
171,2082712887,-110.050186,-61.743168,-155.263214,0.270745,-0.107748,-0.054610,-5.058357,-2.031024,9.556877
172,2082729554,-110.067574,-61.602673,-155.367203,0.203979,0.078458,0.023923,-4.054773,-1.582865,9.444167
173,2082746221,-110.045006,-61.470078,-155.516800,0.114102,0.093948,0.142504,-4.052110,-0.184373,9.446999
174,2082762888,-110.007645,-61.326958,-155.685837,0.117415,0.225039,0.094332,-4.179482,0.144475,10.238598
175,2082779555,-109.890884,-61.194897,-155.959915,0.097199,0.097875,0.111660,-4.931165,3.254768,10.656010
176,2082796222,-109.808540,-61.051559,-156.211197,0.083570,0.003873,0.101879,-5.778062,2.453717,11.070923
177,2082812889,-109.750877,-60.904034,-156.469177,0.205041,-0.018475,0.076035,-7.588382,2.594677,11.379224
178,2082829556,-109.678970,-60.750393,-156.710098,0.307020,0.272749,0.102149,-5.823998,2.048204,11.563660
179,2082846223,-109.613182,-60.597351,-156.889267,0.454734,0.344580,0.081483,-2.945885,0.396478,10.928554
180,2082862890,-109.427620,-60.479893,-157.261551,0.346940,-0.055428,0.065135,-5.831516,6.524052,10.823146
181,2082879557,-109.249695,-60.373325,-157.639755,0.227774,-0.297799,0.010915,-6.577692,6.974952,10.252829
182,2082896224,-109.119408,-60.249283,-157.916855,0.272075,0.158914,0.030722,-4.141849,3.858549,10.243616
183,2082912891,-108.981194,-60.120480,-158.192886,0.437871,0.316942,0.072434,-3.594142,3.784823,10.503242
184,2082929558,-108.776932,-60.023129,-158.555984,0.287209,-0.064359,0.186643,-4.140615,6.917655,9.554497
185,2082946225,-108.587563,-59.942928,-158.897583,0.104752,-0.052540,0.143690,-3.901622,6.696680,8.353271
186,2082962892,-108.421768,-59.865379,-159.214706,-0.067174,0.161277,0.118761,-4.034437,6.095447,7.953674
187,2082979559,-108.212852,-59.799652,-159.605438,-0.124730,0.256894,0.110636,-5.244843,8.469145,7.956660
188,2082996226,-108.031769,-59.736492,-159.916885,-0.002192,0.263897,0.042392,-2.799123,6.287734,7.042796
189,2083012893,-107.836395,-59.663963,-160.238190,0.473202,0.151242,-0.039175,-2.435999,6.438939,7.649011
190,2083029560,-107.379997,-59.504555,-160.714661,0.789521,-0.012698,-0.421246,5.218907,9.424248,14.007249
191,2083046227,-107.063484,-59.343124,-161.079575,0.817455,-0.146415,0.011703,2.626143,6.293423,13.060290
192,2083062894,-106.990654,-59.246052,-161.290771,0.815578,-0.336134,0.079196,-4.041032,3.004287,7.975240
193,2083079561,-106.958076,-59.157806,-161.427109,0.701097,-0.305673,0.273355,-2.589726,0.981690,6.799628
194,2083096228,-106.937820,-59.083206,-161.527374,0.599024,-0.225822,0.345401,-1.451792,0.165413,5.690022
195,2083112895,-106.915726,-59.012356,-161.600769,0.454941,0.027051,0.303257,0.037234,-0.550635,5.238151
196,2083129562,-106.913635,-58.942532,-161.664291,0.386186,0.060873,0.145618,-0.652637,-0.820285,5.088867
197,2083146229,-106.927238,-58.882221,-161.709366,0.500654,0.091961,0.047309,-0.645043,-1.197637,4.378613
198,2083162896,-106.953835,-58.838482,-161.746811,0.493266,-0.022790,0.036803,-1.033498,-1.133989,3.360815
199,2083179563,-107.011162,-58.802158,-161.770721,0.288040,0.039110,0.160852,-2.176849,-1.405523,2.807287
200,2083196230,-107.067070,-58.768696,-161.799301,0.121867,0.113611,0.238667,-2.330833,-1.218396,2.689071
201,2083212897,-107.098282,-58.737167,-161.863403,0.112454,0.159081,0.286866,-2.674901,-0.131278,2.904986
202,2083229564,-107.119904,-58.710114,-161.948486,0.218794,0.118556,0.237207,-3.170315,0.576548,2.840749
203,2083246231,-107.167885,-58.687576,-162.017578,0.290712,0.081336,0.126997,-3.931524,0.178053,2.437349
204,2083262898,-107.226631,-58.674843,-162.078461,0.314484,0.098441,0.151202,-4.153305,0.107452,1.802206
205,2083279565,-107.300797,-58.666840,-162.122040,0.344314,0.053779,0.233591,-4.191941,-0.323360,1.370081
206,2083296232,-107.389046,-58.661572,-162.125610,0.428291,0.012202,0.257087,-2.989002,-1.469337,0.845789
207,2083312899,-107.469360,-58.669884,-162.145187,0.395182,0.076633,0.213809,-3.331162,-0.747199,0.215947
208,2083329566,-107.522255,-58.686310,-162.211761,0.294789,0.123633,0.157765,-4.098943,0.797185,0.194982
209,2083346233,-107.593788,-58.696316,-162.247574,0.314651,0.265542,0.172988,-3.638835,-0.232781,0.274498
210,2083362900,-107.707405,-58.699104,-162.196198,0.513774,0.105007,0.256178,-1.692948,-2.951864,-0.136490
211,2083379567,-107.799034,-58.721241,-162.203339,0.496196,-0.221894,0.257319,-3.371643,-0.861009,-0.688585
212,2083396234,-107.882423,-58.752796,-162.228256,0.404311,-0.270220,0.165634,-3.792230,-0.161719,-1.055563
213,2083412901,-107.976463,-58.772316,-162.211441,0.317347,0.195356,0.101840,-2.290249,-1.615944,-0.768458
214,2083429568,-108.075684,-58.766258,-162.185959,0.246103,0.280401,0.045892,-2.144090,-2.351015,0.607194
215,2083446235,-108.152420,-58.755898,-162.227753,0.166508,-0.062466,0.193175,-4.260200,-0.436274,1.504766
216,2083462902,-108.253456,-58.737789,-162.214447,0.192187,-0.193312,0.279418,-2.885809,-2.210569,1.409486
217,2083479569,-108.360008,-58.717606,-162.202805,0.198244,-0.043046,0.297950,-3.306804,-2.202205,1.544209
218,2083496236,-108.461533,-58.700970,-162.211838,0.164346,0.064130,0.163147,-4.062738,-1.526504,1.544158
219,2083512903,-108.584038,-58.680008,-162.209595,0.299907,0.011355,0.017777,-4.744509,-1.941724,1.678650
220,2083529570,-108.726692,-58.655827,-162.197800,0.410745,-0.047737,0.093033,-5.465737,-2.289315,1.765259
221,2083546237,-108.861092,-58.633888,-162.194946,0.362640,-0.078192,0.216061,-5.425667,-1.985228,1.723319
222,2083562904,-108.976921,-58.612595,-162.218155,0.261783,-0.085662,0.235914,-5.645910,-1.207101,1.952040
223,2083579571,-109.082001,-58.581760,-162.262924,0.259733,-0.005110,0.185092,-6.104916,-0.759161,2.710791
224,2083596238,-109.180740,-58.546940,-162.327408,0.286393,0.005366,0.185373,-6.733491,-0.256819,3.142929
225,2083612905,-109.257401,-58.522011,-162.423004,0.267938,-0.095823,0.191735,-6.997468,0.855701,2.904910
226,2083629572,-109.314209,-58.507160,-162.519196,0.262688,-0.046976,0.146170,-5.835214,1.073243,2.342122
227,2083646239,-109.393089,-58.494381,-162.599365,0.295652,-0.069084,0.092265,-6.339951,0.638006,2.064019
228,2083662906,-109.474663,-58.483105,-162.672165,0.366976,-0.039166,0.086303,-6.125687,0.448805,1.903670
229,2083679573,-109.554375,-58.469452,-162.747513,0.387306,-0.095001,0.104347,-6.143117,0.476121,2.068885
230,2083696240,-109.625725,-58.456467,-162.826996,0.313080,-0.134889,0.155134,-5.851068,0.610203,2.076236
231,2083712907,-109.692123,-58.443779,-162.903290,0.292283,-0.083809,0.112622,-5.388298,0.520892,2.027213
232,2083729574,-109.732903,-58.433025,-163.011871,0.266215,-0.044586,0.035491,-5.506820,1.511232,2.266718
233,2083746241,-109.766487,-58.415741,-163.129913,0.230625,-0.028246,-0.020543,-5.556651,1.665342,2.734173
234,2083762908,-109.811714,-58.389675,-163.240738,0.288869,-0.083423,0.008703,-5.888821,1.272125,3.160294
235,2083779575,-109.838120,-58.367752,-163.371948,0.311987,-0.127359,0.091836,-5.793234,1.959801,3.143402
236,2083796242,-109.853821,-58.341675,-163.502701,0.360971,-0.069359,0.123969,-5.127830,1.861525,3.375978
237,2083812909,-109.842781,-58.310028,-163.662018,0.427255,0.005026,0.095914,-4.974448,2.600541,3.993923
238,2083829576,-109.808350,-58.278713,-163.835556,0.423768,0.050362,0.060459,-4.300744,3.030924,4.130516
239,2083846243,-109.764191,-58.250950,-164.006897,0.466802,-0.056638,0.017066,-3.599660,3.045676,3.904675
240,2083862910,-109.693115,-58.226189,-164.246552,0.483482,-0.167140,-0.086032,-5.463267,5.145023,4.459204
241,2083879577,-109.645149,-58.191059,-164.479019,0.415688,0.013284,-0.107018,-6.485048,4.734157,4.964659
242,2083896244,-109.637337,-58.145195,-164.652008,0.284712,-0.041865,-0.079445,-5.852721,2.753385,4.937637
243,2083912911,-109.581017,-58.101994,-164.941879,0.070415,-0.423511,-0.075762,-8.892991,6.304576,6.030392
244,2083929578,-109.502480,-58.049335,-165.249786,0.091495,-0.448826,0.054246,-8.468973,6.670851,6.751211
245,2083946245,-109.394127,-57.987370,-165.488342,0.233063,0.056629,0.184711,-3.144165,4.432848,6.535408
246,2083962912,-109.206261,-57.930904,-165.750397,0.353084,0.126369,0.169048,0.441979,5.274212,6.461373
247,2083979579,-109.036720,-57.896507,-165.998108,0.423550,-0.156278,0.196162,0.078637,5.303603,5.040996
248,2083996246,-108.984695,-57.870274,-166.099213,0.546073,-0.066087,0.056308,0.480731,1.057478,3.045164
249,2084012913,-108.922707,-57.852791,-166.249390,0.456085,-0.004572,0.064945,-1.413475,2.713646,3.054564
250,2084029580,-108.869972,-57.831970,-166.425232,0.175591,-0.067778,0.070886,-3.275621,3.430802,3.507948
251,2084046247,-108.840851,-57.796516,-166.574997,0.132364,-0.069246,0.039278,-3.356250,2.362983,4.064524
252,2084062914,-108.795021,-57.753418,-166.735626,0.233025,-0.065871,0.055818,-2.909168,2.551826,4.612829
253,2084079581,-108.720558,-57.711246,-166.913696,0.289831,-0.137934,0.029702,-2.065229,3.106533,4.736192
254,2084096248,-108.619751,-57.676125,-167.110291,0.373590,-0.082374,0.069422,-1.425526,3.817310,4.521737
255,2084112915,-108.538399,-57.643410,-167.292526,0.450740,0.053749,0.108538,-1.859277,3.438959,4.228395
256,2084129582,-108.470070,-57.610947,-167.461014,0.485920,0.047574,0.159610,-1.940700,3.034356,4.072733
257,2084146249,-108.406799,-57.582752,-167.636429,0.443021,-0.069812,0.125119,-2.592018,3.335945,3.895737
258,2084162916,-108.349968,-57.551258,-167.788956,0.403318,-0.044464,0.062579,-1.816856,2.581422,3.848456
259,2084179583,-108.272614,-57.525021,-167.967041,0.474001,-0.071005,0.040350,-1.877244,3.472845,3.801700
260,2084196250,-108.146858,-57.513569,-168.179337,0.397496,-0.034950,0.085801,-0.700943,4.803131,3.297245
261,2084212917,-107.981834,-57.507904,-168.429459,0.316276,0.040255,0.142675,-0.258202,6.078196,3.329402
262,2084229584,-107.821609,-57.503574,-168.674316,0.443887,-0.006439,0.101975,-0.274466,5.951579,3.179567
263,2084246251,-107.720222,-57.493282,-168.878372,0.512663,-0.071103,0.005683,-1.737899,4.594796,3.102601
264,2084262918,-107.672943,-57.467442,-169.029892,0.379738,-0.088407,-0.067122,-2.325313,2.702313,3.467287
265,2084279585,-107.669144,-57.435814,-169.120941,0.325868,-0.109622,-0.039365,-1.876847,0.742032,3.206729
266,2084296252,-107.713799,-57.409470,-169.175079,0.235489,-0.214159,-0.069390,-2.913291,-0.294175,2.542400
267,2084312919,-107.761116,-57.379196,-169.218719,0.154226,-0.214577,-0.002402,-2.545544,-0.688546,2.665187
268,2084329586,-107.849434,-57.345093,-169.197464,0.183189,-0.068459,0.032960,-1.730663,-2.760371,2.243641
269,2084346253,-108.001595,-57.306366,-169.115204,0.199170,0.027786,-0.109728,-2.480027,-4.729296,1.897024
270,2084362920,-108.182327,-57.261402,-169.003036,0.211620,-0.028201,-0.150459,-2.677744,-5.776958,1.937902
271,2084379587,-108.401459,-57.209156,-168.868576,0.229869,-0.091388,-0.075495,-3.863228,-6.612317,2.110340
272,2084396254,-108.656372,-57.141598,-168.709961,0.119106,-0.052661,0.084059,-4.795493,-7.659570,2.706489
273,2084412921,-108.945023,-57.066792,-168.546738,-0.019530,0.096628,0.090637,-6.598974,-7.961404,3.038993
274,2084429588,-109.242531,-56.976852,-168.352768,0.007201,0.286267,0.029669,-5.587515,-9.233447,3.531359
275,2084446255,-109.524963,-56.881237,-168.178497,0.238725,0.236084,0.090475,-5.684766,-8.765258,4.019844
276,2084462922,-109.799026,-56.785332,-168.065109,0.382242,0.162044,0.150393,-8.249176,-6.920234,4.670241
277,2084479589,-110.082695,-56.690693,-167.880508,0.415457,0.299343,0.073503,-5.260313,-9.127203,3.768494
278,2084496256,-110.376221,-56.596786,-167.655563,0.446730,0.080783,-0.063320,-3.841305,-10.390835,3.224276
279,2084512923,-110.577621,-56.513794,-167.590042,0.356925,-0.224054,0.215478,-6.303722,-5.250284,4.409336
280,2084529590,-110.793419,-56.433121,-167.471832,0.469167,0.238627,0.555950,-4.536651,-6.852794,3.645616
281,2084546257,-111.018066,-56.348248,-167.293213,0.650034,0.543828,0.399894,-2.056508,-8.836333,3.141796
282,2084562924,-111.265312,-56.271271,-167.089828,0.746930,0.112139,0.094216,-2.181767,-9.458620,2.365609
283,2084579591,-111.471123,-56.206032,-166.859299,0.723797,-0.229834,0.079065,1.648078,-10.064503,1.346509
284,2084596258,-111.753922,-56.155178,-166.620377,0.677903,-0.264783,-0.090720,-2.554868,-10.020409,0.394737
285,2084612925,-112.036369,-56.119747,-166.425491,0.362313,-0.195579,0.181453,-4.738095,-8.318175,0.041717
286,2084629592,-112.302910,-56.088860,-166.217941,0.176016,0.039366,0.228625,-3.153359,-8.611414,-0.407716
287,2084646259,-112.638550,-56.041832,-165.917480,0.254582,0.175089,0.062893,-2.677643,-11.860441,-0.742692
288,2084662926,-113.042686,-55.990223,-165.551910,0.332396,0.075556,0.011700,-3.560129,-13.979780,-1.410044
289,2084679593,-113.503578,-55.901810,-165.144775,0.359399,-0.099194,0.197117,-4.915453,-16.140114,-0.036946
290,2084696260,-114.042046,-55.837059,-164.703659,0.383428,-0.186487,0.013005,-7.898838,-16.636389,-1.935772
291,2084712927,-114.737587,-55.699181,-164.105438,0.325819,-0.141223,0.042212,-9.556299,-23.287210,-0.311477
292,2084729594,-115.498299,-55.532738,-163.411560,0.382138,0.191294,0.279244,-8.786782,-27.005981,-0.446968
293,2084746261,-116.216011,-55.384872,-162.789795,0.368620,0.267017,0.234892,-9.837491,-24.379868,-0.750441
294,2084762928,-116.934425,-55.241398,-162.191910,0.300709,0.125871,0.282614,-11.107038,-23.586498,-0.945406
295,2084779595,-117.668961,-55.118851,-161.605667,0.316087,0.035600,0.266296,-12.697667,-22.696928,-2.189750
296,2084796262,-118.454483,-54.971252,-161.012833,0.427129,-0.077388,0.114817,-15.477313,-23.625160,-1.286581
297,2084812929,-119.209435,-54.830418,-160.447540,0.387490,0.013896,0.169824,-15.050634,-22.636393,-1.516058
298,2084829596,-119.975716,-54.716022,-159.854614,0.358558,-0.158535,0.428548,-14.416465,-22.709215,-3.678442
299,2084846263,-120.850838,-54.563637,-159.133560,0.360028,-0.256641,0.375705,-14.727379,-27.695852,-4.307097
300,2084862930,-121.715187,-54.400330,-158.420181,0.420703,-0.072184,0.400499,-14.525589,-27.813452,-4.057425
301,2084879597,-122.227150,-54.343506,-158.098419,0.459696,0.067089,0.511368,-12.531962,-12.818876,-2.579688
302,2084896264,-122.670830,-54.299110,-157.864349,0.175249,-0.009360,0.320301,-12.715066,-9.814181,-1.667235
303,2084912931,-123.231651,-54.205666,-157.484619,0.077934,0.043880,0.301520,-12.665564,-15.689940,-2.053693
304,2084929598,-123.739532,-54.105091,-157.119553,0.108551,0.142075,0.278554,-10.226294,-15.499059,-1.563260
305,2084946265,-124.225723,-53.937374,-156.796432,0.178345,0.207175,0.523178,-10.990541,-16.541168,2.456524
306,2084962932,-124.727272,-53.728607,-156.432693,0.161553,0.121010,0.749477,-9.986025,-19.176029,3.516149
307,2084979599,-125.296501,-53.462013,-155.957550,0.327105,0.129309,0.873295,-8.717483,-24.505354,3.872668
308,2084996266,-125.935333,-53.148220,-155.386063,0.795240,0.151597,0.475376,-8.342392,-29.091169,3.848968
309,2085012933,-126.499268,-52.813629,-154.915497,0.900522,0.156978,0.345669,-8.802855,-27.045687,6.628068
310,2085029600,-126.794662,-52.583736,-154.818512,0.636311,-0.022645,0.252679,-10.600315,-12.532093,9.435878
311,2085046267,-126.955025,-52.473644,-154.973114,0.213176,-0.056684,-0.112030,-14.486558,-0.921328,9.142174
312,2085062934,-127.038116,-52.412460,-155.164642,-0.050573,-0.328324,-0.382683,-11.598181,1.913738,7.619393
313,2085079601,-127.139175,-52.397038,-155.332916,0.062150,-0.770172,-0.343153,-11.569864,2.885855,4.928699
314,2085096268,-127.371735,-52.412003,-155.392700,0.103153,-0.800325,-0.306372,-14.303756,0.815605,1.085922
315,2085112935,-127.567337,-52.491993,-155.435135,0.193110,-0.634631,-0.312111,-11.260973,2.682067,-2.390485
316,2085129602,-127.835533,-52.616543,-155.380554,0.263431,-0.320510,-0.773996,-11.002710,1.524373,-6.653555
317,2085146269,-128.046555,-52.797607,-155.535675,-0.031155,-0.678888,-0.644527,-17.577559,9.658351,-4.624341
318,2085162936,-128.182907,-53.079380,-155.974899,-0.607839,-1.209487,-0.334428,-26.719090,21.461554,-3.022631
319,2085179603,-128.671600,-53.211216,-156.015076,-0.675036,-0.871473,-0.089223,-28.762638,4.582632,-4.820517
320,2085196270,-129.517059,-53.109402,-155.565903,-0.090895,-0.352556,0.289266,-26.668041,-17.858559,-4.973774
321,2085212937,-130.408997,-52.946030,-154.908112,0.747289,0.180716,0.212862,-19.500687,-25.955597,-7.257129
322,2085229604,-131.167328,-52.860493,-154.421570,1.274246,0.699980,0.258498,-19.729273,-18.146265,-7.142262
323,2085246271,-131.511169,-53.015064,-154.494080,0.774822,-0.003525,0.084125,-21.614662,6.631378,-4.756377
324,2085262938,-131.952896,-53.161629,-154.528366,0.325455,-0.435632,-0.230062,-25.659187,5.314527,-5.266304
325,2085279605,-132.623749,-53.148975,-154.227524,0.461003,0.020908,0.131787,-23.319613,-9.978988,-6.248092
326,2085296272,-133.240662,-53.094177,-153.849182,0.569747,0.058085,0.538878,-16.366451,-13.671083,-6.400330
327,2085312939,-133.688309,-53.181801,-153.818710,0.457336,-0.618554,0.183312,-22.905930,1.361721,-4.100294
328,2085329606,-134.079163,-53.324619,-153.792389,0.301305,-0.118003,0.650992,-19.703379,3.800770,-6.355019
329,2085346273,-134.455414,-53.350246,-153.550842,1.007174,0.549131,0.738604,-8.459867,-6.580009,-6.671664
330,2085362940,-134.542068,-53.466110,-153.514465,0.966389,0.024821,0.855542,-0.954842,2.487486,-5.401232
331,2085379607,-134.453827,-53.670631,-153.612030,0.605522,-0.366909,0.686001,3.070662,9.624840,-5.843731
332,2085396274,-134.412079,-53.868656,-153.724106,0.457343,-0.193377,0.381720,-0.433124,9.700859,-5.230538
333,2085412941,-134.395782,-54.047810,-153.907074,0.161533,-0.123440,0.055582,-5.411586,10.680711,-2.688971
334,2085429608,-134.496155,-54.175941,-154.027252,0.100639,-0.059290,-0.102827,-9.374418,6.945021,-2.057162
335,2085446275,-134.669693,-54.284763,-154.099869,0.256653,0.127886,0.153327,-11.456325,4.941685,-2.391229
336,2085462942,-134.812347,-54.404198,-154.184158,0.381163,0.135722,0.413272,-10.177328,5.684339,-2.541511
337,2085479609,-134.906326,-54.542324,-154.280273,0.429860,-0.064818,0.492703,-7.838346,6.766999,-3.040792
338,2085496276,-134.984222,-54.686848,-154.352661,0.444265,-0.227697,0.463039,-5.722174,6.452821,-3.888291
339,2085512943,-135.087952,-54.835831,-154.373688,0.454988,-0.251753,0.363453,-4.761352,5.386154,-5.330555
340,2085529610,-135.204178,-55.003033,-154.374924,0.492525,-0.213927,0.295935,-4.540583,5.689013,-6.574745
341,2085546277,-135.257874,-55.211807,-154.402512,0.386852,-0.117287,0.179432,-2.082505,8.107659,-7.677935
342,2085562944,-135.283096,-55.421810,-154.406891,0.460135,0.037269,0.116662,0.762394,7.603152,-8.288721
343,2085579611,-135.271347,-55.626720,-154.427078,0.416850,-0.124207,0.145312,2.200228,7.766817,-7.692995
344,2085596278,-135.219940,-55.848278,-154.471024,0.377236,-0.097158,0.098997,3.400926,9.035558,-7.834519
345,2085612945,-135.197388,-56.054901,-154.502136,0.418651,0.009183,0.033199,2.301564,8.083044,-7.520865
346,2085629612,-135.129227,-56.273098,-154.611053,0.271267,-0.161692,0.036859,1.158136,10.398064,-6.179272
347,2085646279,-135.120621,-56.459591,-154.667725,0.229275,-0.125978,-0.033042,0.183329,7.806337,-6.088307
348,2085662946,-135.224167,-56.587585,-154.617020,0.317649,-0.054955,0.050547,-1.179388,2.811654,-6.130491
349,2085679613,-135.336151,-56.710922,-154.556274,0.346959,-0.050999,0.113293,-1.176327,2.399135,-6.160328
350,2085696280,-135.452850,-56.836281,-154.480804,0.261021,-0.093618,0.110163,-0.716183,2.161258,-6.576498
351,2085712947,-135.607178,-56.931934,-154.349838,0.236050,-0.209915,0.180737,-0.179776,-0.360435,-6.613418
352,2085729614,-135.794922,-57.009846,-154.202240,0.303824,-0.231739,0.262038,-1.344590,-1.475625,-6.246747
353,2085746281,-135.984299,-57.078362,-154.073502,0.347410,-0.012296,0.267221,-2.381584,-1.420340,-5.407674
354,2085762948,-136.171524,-57.136322,-153.979111,0.329393,0.126520,0.277591,-3.979651,-1.078218,-4.156749
355,2085779615,-136.332306,-57.214447,-153.943481,0.336490,0.115999,0.218550,-5.347587,1.138555,-3.610239
356,2085796282,-136.497192,-57.291393,-153.928024,0.353688,0.189652,0.190664,-6.616171,1.550933,-3.073986
357,2085812949,-136.663040,-57.344467,-153.887329,0.461639,0.177969,0.159964,-5.397493,-0.040865,-2.675004
358,2085829616,-136.794464,-57.408382,-153.895096,0.543317,0.029452,0.321685,-5.774550,1.518225,-1.977493
359,2085846283,-136.892502,-57.484470,-153.946899,0.433470,-0.086526,0.334463,-6.001480,3.029902,-1.431849
360,2085862950,-136.997620,-57.546154,-153.966827,0.348574,-0.115705,0.238120,-4.818032,1.696490,-1.584991
361,2085879617,-137.128876,-57.590706,-153.930298,0.335453,-0.114564,0.162677,-3.527227,-0.288630,-2.209928
362,2085896284,-137.257584,-57.631977,-153.908127,0.353660,-0.176217,0.151233,-4.097699,-0.113592,-1.733019
363,2085912951,-137.355545,-57.682888,-153.947769,0.364028,-0.156299,0.142657,-5.382867,1.663487,-0.668248
364,2085929618,-137.444336,-57.722427,-153.958954,0.336464,-0.051615,0.207666,-3.390532,0.544263,-0.872586
365,2085946285,-137.584702,-57.693474,-153.791061,0.522562,-0.013951,0.248254,2.595021,-6.360876,-2.326735
366,2085962952,-137.676727,-57.737740,-153.806610,0.390161,-0.339779,0.042249,-3.811811,0.853844,-0.949540
367,2085979619,-137.678406,-57.843506,-153.922607,0.230012,-0.318602,-0.132662,-3.490486,5.744000,-1.057817
368,2085996286,-137.932632,-57.797035,-153.684189,0.459910,0.110063,0.142360,-0.642751,-8.625705,-3.303975
369,2086012953,-138.308975,-57.651947,-153.303223,0.683518,0.167708,0.224149,-0.747200,-16.072048,-2.812572
370,2086029620,-138.522522,-57.605278,-153.196808,0.366538,-0.179697,0.358153,-4.915027,-5.808346,-0.232871
371,2086046287,-138.614090,-57.629665,-153.184738,0.090116,-0.141401,0.302917,-2.383275,-0.602488,-0.790267
372,2086062954,-138.830338,-57.570007,-153.008423,0.289155,0.010030,0.141867,-1.541347,-7.871386,-1.433082
373,2086079621,-139.026947,-57.506104,-152.891357,0.451006,0.056971,0.277832,-3.366444,-6.809791,0.141260
374,2086096288,-139.084946,-57.498035,-152.938324,0.409490,0.046357,0.349654,-3.357903,-0.816802,1.928643
375,2086112955,-139.139618,-57.471092,-152.977722,0.356325,-0.014185,0.243339,-2.773586,-1.831410,2.485373
376,2086129622,-139.193985,-57.444290,-153.013733,0.320062,-0.039198,0.242889,-2.582068,-1.897619,2.397266
377,2086146289,-139.227676,-57.431618,-153.063187,0.298596,-0.019861,0.190348,-2.020740,-0.976049,2.171874
378,2086162956,-139.274216,-57.416866,-153.084793,0.294601,-0.061615,0.205729,-1.380909,-1.656732,1.570769
379,2086179623,-139.338760,-57.404633,-153.081085,0.351051,-0.115902,0.208690,-1.186751,-2.076754,0.853703
380,2086196290,-139.405121,-57.399982,-153.081696,0.318635,-0.128781,0.304168,-1.508447,-1.640199,0.661045
381,2086212957,-139.467163,-57.405075,-153.097504,0.301032,-0.141786,0.351448,-2.021175,-0.877312,0.654885
382,2086229624,-139.481064,-57.437191,-153.155045,0.253868,-0.158829,0.224916,-1.241038,1.229992,0.626352
383,2086246291,-139.546127,-57.429653,-153.144409,0.439312,-0.054787,0.118984,-0.862559,-2.008420,0.495292
384,2086262958,-139.599213,-57.417694,-153.184418,0.388534,-0.081528,0.094844,-2.703698,-1.149324,1.912506
385,2086279625,-139.604950,-57.416843,-153.291595,0.220817,-0.081420,0.157177,-3.259447,0.764200,3.134963
386,2086296292,-139.655746,-57.370235,-153.357925,0.263583,-0.088685,0.216780,-3.898548,-2.182049,3.908517
387,2086312959,-139.734100,-57.302242,-153.437241,0.267816,-0.141353,0.238278,-6.202002,-2.890662,5.062510
388,2086329626,-139.793121,-57.235466,-153.549500,0.205169,-0.190567,0.203157,-6.700296,-2.147485,5.830892
389,2086346293,-139.854919,-57.158005,-153.638977,0.363707,-0.190381,0.182158,-5.715616,-3.113532,5.682223
390,2086362960,-139.906906,-57.078121,-153.721375,0.517015,-0.219536,0.155531,-4.770072,-3.376023,5.605064
391,2086379627,-139.946472,-57.011456,-153.832336,0.512883,-0.191912,0.217152,-5.456748,-2.168026,5.809275
392,2086396294,-139.941650,-56.973282,-153.987915,0.407765,-0.236235,0.178065,-5.033140,0.078189,5.828036
393,2086412961,-139.895447,-56.958080,-154.184845,0.383880,-0.356315,0.130548,-4.627537,2.008529,5.977448
394,2086429628,-139.809113,-56.948238,-154.407883,0.354685,-0.442428,0.106236,-3.533221,2.812793,6.422097
395,2086446295,-139.738129,-56.898518,-154.598038,0.421255,-0.462542,0.129649,-2.797356,0.301775,7.142519
396,2086462962,-139.705475,-56.788033,-154.782410,0.527318,-0.452768,0.210431,-4.796863,-2.586550,9.360643
397,2086479629,-139.623260,-56.698757,-155.054810,0.471134,-0.348484,0.305087,-6.224734,0.275714,10.759062
398,2086496296,-139.519882,-56.639549,-155.377563,0.367168,-0.275177,0.208602,-7.473304,2.755512,10.865074
399,2086512963,-139.404984,-56.589417,-155.708466,0.430123,-0.234435,0.205684,-7.180575,3.374200,10.719069
400,2086529630,-139.307266,-56.538895,-156.030289,0.366705,-0.347917,0.119192,-7.747041,3.188380,10.508418
401,2086546297,-139.252747,-56.479797,-156.274872,0.384931,0.035002,0.344573,-6.460742,1.153001,8.910770
402,2086562964,-139.230621,-56.365486,-156.389984,0.523602,0.336157,0.376016,-1.921901,-4.141690,7.830234
403,2086579631,-139.098877,-56.383209,-156.777695,0.205180,0.023216,0.355246,-8.960660,7.785057,9.511673
404,2086596298,-138.925919,-56.447937,-157.204971,0.088656,-0.117764,0.142984,-8.464274,10.786651,8.616421
405,2086612965,-138.914093,-56.413620,-157.357864,0.133869,0.063535,0.245281,-4.427617,0.339785,5.637503
406,2086629632,-138.953171,-56.324982,-157.357147,0.339125,0.022670,0.053160,0.197147,-5.466442,3.936538
407,2086646299,-138.921356,-56.297123,-157.438507,0.284313,-0.322949,0.142500,0.353795,-0.921737,3.600346
408,2086662966,-138.854736,-56.303799,-157.498306,0.291450,-0.426861,0.238997,3.516669,0.168768,1.698564
409,2086679633,-138.835754,-56.309063,-157.507462,0.447221,-0.421995,0.259090,3.189798,-1.004513,0.480786
410,2086696300,-138.773026,-56.360134,-157.616150,0.402558,-0.307976,0.150530,0.840666,3.243176,1.162938
411,2086712967,-138.656754,-56.410805,-157.783783,0.300689,-0.181184,0.128427,1.103287,4.516077,2.639050
412,2086729634,-138.574677,-56.422096,-157.911896,0.280036,-0.148627,0.204444,1.028292,1.875779,3.201492
413,2086746301,-138.544357,-56.398281,-158.011887,0.340894,-0.192101,0.086090,-0.673524,-0.318263,3.895327
414,2086762968,-138.471542,-56.383373,-158.186417,0.311668,-0.260793,0.120266,-1.846689,1.728147,5.393658
415,2086779635,-138.334427,-56.417233,-158.432358,0.191985,-0.415716,0.260222,-1.559750,5.496237,5.217340
416,2086796302,-138.284088,-56.449810,-158.572098,0.134845,-0.269590,0.322771,-1.458105,3.098593,2.620519
417,2086812969,-138.320267,-56.437668,-158.596298,0.274755,-0.042053,0.223120,-0.876979,-1.452586,1.545848
418,2086829636,-138.349915,-56.421299,-158.649002,0.332621,-0.115914,0.231449,-1.905483,-1.014327,2.419036
419,2086846303,-138.292297,-56.459850,-158.783356,0.342986,-0.162418,0.188165,-0.755728,3.247390,2.250338
420,2086862970,-138.235306,-56.492695,-158.897247,0.509052,-0.217774,0.100379,0.223003,2.540159,1.966217
421,2086879637,-138.179214,-56.535233,-159.039993,0.389502,-0.220188,0.111824,-1.269032,3.611461,2.280792
422,2086896304,-138.129211,-56.557831,-159.137680,0.270474,-0.082215,0.243019,0.617349,1.720155,1.963732
423,2086912971,-138.135696,-56.539074,-159.149719,0.323520,-0.160320,0.269026,1.517328,-2.016283,1.506405
424,2086929638,-138.091995,-56.536041,-159.220032,0.431692,-0.229476,0.201998,1.611276,-0.027380,2.312885
425,2086946305,-137.992493,-56.557735,-159.331451,0.333842,-0.264241,0.191757,2.905025,1.990548,2.327330
426,2086962972,-137.920334,-56.580036,-159.376099,0.210745,-0.270401,0.212245,4.598844,0.537835,0.660737
427,2086979639,-137.937057,-56.581043,-159.308228,0.227594,-0.161583,0.186209,4.902368,-2.901125,-1.246224
428,2086996306,-137.987946,-56.561008,-159.216537,0.314874,0.074067,0.204453,4.042088,-4.365724,-0.987062
429,2087012973,-137.953674,-56.569889,-159.224075,0.429442,0.152228,0.124042,4.181984,-0.879041,0.288162
430,2087029640,-137.946655,-56.568977,-159.213516,0.384169,0.097288,0.122066,3.455237,-1.716973,0.236079
431,2087046307,-137.995163,-56.548748,-159.136246,0.354944,-0.044701,0.151877,3.464022,-4.056066,-0.627460
432,2087062974,-138.095245,-56.517712,-158.968338,0.372858,0.018983,0.159420,4.907118,-6.541267,-2.428468
433,2087079641,-138.265213,-56.469666,-158.725800,0.306234,-0.068842,0.108337,4.447717,-8.947992,-3.609663
434,2087096308,-138.513245,-56.350750,-158.378326,0.324898,-0.165956,0.110231,4.991393,-14.434608,-3.428750
435,2087112975,-138.760834,-56.197109,-158.013748,0.354581,-0.326869,0.211140,5.842166,-16.388329,-2.567291
436,2087129642,-138.921066,-56.074966,-157.747711,0.251362,-0.398904,0.252435,6.148595,-12.815104,-1.420071
437,2087146309,-139.100372,-55.965584,-157.460754,0.234450,-0.185340,0.197702,6.028125,-12.709170,-2.506499
438,2087162976,-139.331360,-55.804016,-157.052811,0.463689,0.047473,0.309245,8.910973,-17.748705,-3.610615
439,2087179643,-139.500305,-55.722649,-156.860382,0.385854,-0.151818,0.180966,1.909907,-9.379693,-1.304724
440,2087196310,-139.510757,-55.725582,-156.881317,0.207944,-0.342420,0.093256,0.840423,-0.849727,0.875205
441,2087212977,-139.595108,-55.680290,-156.781433,0.402140,-0.038583,0.192726,2.392207,-5.701284,-0.355837
442,2087229644,-139.743347,-55.554295,-156.554337,0.794696,0.261186,0.232633,4.856701,-12.187386,-0.522422
443,2087246311,-139.838821,-55.463097,-156.456985,0.673665,-0.104633,0.309147,1.593462,-7.757165,1.456601
444,2087262978,-139.878555,-55.418995,-156.427612,0.260242,-0.273251,0.329085,1.568912,-4.111620,1.391660
445,2087279645,-140.031616,-55.304008,-156.265198,0.274612,-0.239225,0.432663,1.339897,-10.288907,0.643538
446,2087296312,-140.133118,-55.255444,-156.177124,0.348617,-0.097173,0.412597,0.756734,-5.608989,0.010059
447,2087312979,-140.146988,-55.236664,-156.164017,0.210104,0.012873,0.224184,2.318711,-2.595284,0.827079
448,2087329646,-140.172012,-55.204056,-156.093002,0.109501,0.149213,0.209178,4.500670,-4.502110,-0.163640
449,2087346313,-140.271194,-55.144505,-155.913803,0.079440,0.309096,0.144349,5.379430,-8.117422,-1.985920
450,2087362980,-140.498016,-55.056713,-155.638855,-0.030985,0.415656,0.019425,2.422393,-11.518292,-3.464042
451,2087379647,-140.742172,-54.876431,-155.353210,-0.001478,0.137438,0.185414,1.887716,-16.044796,-0.295123
452,2087396314,-140.810806,-54.719471,-155.153793,0.247398,-0.326091,0.665186,8.161576,-13.100855,1.059758
453,2087412981,-140.746460,-54.700439,-155.111649,0.120862,-0.585150,0.413352,8.423436,-3.252110,0.037439
454,2087429648,-140.608414,-54.815689,-155.065567,-0.173243,-0.862361,0.363885,13.043181,2.893872,-5.170004
455,2087446315,-140.440491,-54.988094,-154.915161,0.197451,-0.544114,0.463510,19.954411,3.241812,-10.131557
456,2087462982,-140.151230,-55.176910,-154.881058,0.762989,-0.393423,0.616575,21.529726,6.521871,-7.690280
457,2087479649,-139.488174,-55.537155,-155.368668,0.692631,-0.400111,0.795893,18.211073,25.796108,-0.787606
458,2087496316,-138.463623,-56.010544,-156.231277,0.374303,-0.565654,0.661184,21.184967,39.088020,3.769184
459,2087512983,-137.182816,-56.539734,-157.295303,0.489187,-0.334321,0.603586,26.250156,45.879566,5.406188
460,2087529650,-135.675400,-57.135895,-158.657700,0.349338,-0.233641,0.643620,24.518753,55.283234,8.199379
461,2087546317,-134.023331,-57.729183,-160.191467,0.146290,0.306090,0.340224,24.068865,58.768246,10.162055
462,2087562984,-132.367920,-58.173630,-161.711548,0.178345,0.303094,0.172291,24.527771,52.080627,14.147355
463,2087579651,-130.678436,-58.577595,-163.236481,0.271353,0.128684,0.067617,25.970753,50.529095,14.121867
464,2087596318,-129.068832,-58.901154,-164.721146,0.337489,-0.047430,-0.117381,22.943470,46.465271,15.202003
465,2087612985,-127.601242,-59.126987,-166.080338,0.410394,-0.201152,-0.188563,20.655146,39.878590,15.880198
466,2087629652,-126.348938,-59.241379,-167.206543,0.401149,-0.293823,-0.080353,19.626804,30.323957,15.801450
467,2087646319,-125.307175,-59.280300,-168.088058,0.664362,-0.367108,0.443632,19.566889,21.824247,14.397317
468,2087662986,-124.283463,-59.356789,-168.935074,0.463458,-0.391106,0.362667,20.240067,22.453012,11.494464
469,2087679653,-123.271980,-59.441189,-169.774872,0.446398,-0.195042,0.157722,19.840139,22.672503,10.519756
470,2087696320,-122.216988,-59.515846,-170.687119,0.280309,-0.335854,0.322975,18.676514,24.339682,11.734920
471,2087712987,-121.336739,-59.505524,-171.477951,0.085567,-0.035166,-0.132228,14.449294,18.675375,13.673419
472,2087729654,-120.639320,-59.318676,-171.961487,0.496708,-0.084797,0.114866,19.399202,5.418975,17.677345
473,2087746321,-119.926201,-59.126461,-172.430206,0.728527,-0.428151,0.218046,21.151737,5.143512,17.683411
474,2087762988,-118.995888,-58.975151,-173.062561,0.719594,-0.708107,0.107766,25.807283,11.056219,17.967985
475,2087779655,-118.145363,-58.706707,-173.586929,0.819209,0.066903,-0.461725,26.637594,5.123746,22.395859
476,2087796322,-117.207390,-58.433369,-173.923782,1.138721,-0.864157,0.389288,41.562294,0.243623,19.882984
477,2087812989,-116.306679,-58.287045,-174.407089,0.725394,-0.075937,0.475400,31.883429,8.156216,15.151525
478,2087829656,-115.355911,-58.160900,-174.814636,0.331605,-0.030439,0.259725,38.785168,6.814332,12.888868
479,2087846323,-114.592491,-58.019745,-175.146179,0.331091,0.306270,0.053780,31.452503,4.476279,12.579799
480,2087862990,-113.829552,-57.871628,-175.537018,0.300134,0.227499,0.128347,28.429512,6.225105,13.676046
481,2087879657,-113.060287,-57.723923,-175.956528,0.201524,0.120510,0.106521,27.387110,7.298038,13.935298
482,2087896324,-112.348167,-57.570293,-176.351700,0.168954,0.254787,0.029680,25.230911,6.666064,13.865676
483,2087912991,-111.579353,-57.407906,-176.790039,0.180216,0.276516,0.077288,26.485561,7.980464,14.790353
484,2087929658,-110.812103,-57.239372,-177.200851,0.351823,0.124076,0.154041,27.819616,7.266625,14.708063
485,2087946325,-110.017662,-57.090942,-177.614075,0.551974,-0.097575,0.120175,29.367041,8.005159,13.506557
486,2087962992,-109.195969,-56.955803,-178.033463,0.759492,-0.261769,0.129846,30.730579,8.690200,12.702048
487,2087979659,-108.379173,-56.835491,-178.453506,0.875875,-0.161291,0.133848,30.433561,9.214994,11.736946
488,2087996326,-107.589684,-56.721313,-178.909790,0.701877,-0.042068,0.204789,27.004875,10.660151,11.616956
489,2088012993,-106.769218,-56.594273,-179.458435,0.397238,0.126863,0.236752,24.263359,13.541103,13.097810
490,2088029660,-105.969566,-56.437248,179.943146,0.133835,0.209347,0.133847,20.569733,14.855817,15.093810
491,2088046327,-105.089752,-56.253593,179.228394,0.044269,0.279702,0.001412,19.631878,18.450720,17.452141
492,2088062994,-104.133011,-56.036098,178.438599,0.187007,0.378172,-0.130726,20.591156,20.753504,19.762493
493,2088079661,-103.214798,-55.832207,177.677734,0.172347,0.459614,-0.397101,19.815149,20.456326,18.405983
494,2088096328,-102.293747,-55.652267,176.914780,0.145482,0.237711,-0.299256,19.967453,21.245928,16.697504
495,2088112995,-101.384239,-55.500008,176.109680,0.105193,0.185722,-0.166898,17.265402,23.348042,15.023116
496,2088129662,-100.529991,-55.339733,175.327377,0.057467,0.135470,-0.234730,15.143132,22.828083,14.986407
497,2088146329,-99.732193,-55.152390,174.601288,0.126362,-0.008133,-0.086167,14.624610,20.965273,15.913458
498,2088162996,-99.006821,-54.924835,173.982132,0.365717,-0.138405,-0.038487,15.618407,17.275415,17.422045
499,2088179663,-98.374222,-54.669327,173.475220,0.661480,-0.436604,-0.037778,15.647000,13.511717,18.286512
500,2088196330,-97.826836,-54.413044,173.037292,0.626526,-0.583774,-0.037153,13.988478,11.412117,17.855263
501,2088212997,-97.309204,-54.152454,172.646332,0.359784,-0.325727,-0.051242,14.561306,10.001070,17.786400
502,2088229664,-96.817436,-53.881931,172.305649,0.341709,0.111527,-0.045927,15.505252,8.413656,18.071217
503,2088246331,-96.360199,-53.604889,172.008392,0.388546,0.082330,-0.037652,15.594218,7.062416,18.206039
504,2088262998,-96.013405,-53.314396,171.831192,0.523018,-0.254382,0.046070,14.814831,2.898934,18.495604
505,2088279665,-95.806076,-53.004902,171.800919,0.624263,-0.395801,0.160188,13.530761,-2.345090,19.066751
506,2088296332,-95.670212,-52.681450,171.853561,0.266694,-0.416740,0.101794,13.211448,-5.354090,19.602661
507,2088312999,-95.555557,-52.353771,171.880844,-0.259286,-0.584684,-0.234127,10.718724,-4.432120,19.953825
508,2088329666,-95.423752,-52.036560,171.783142,-0.697572,-0.759254,-0.209804,5.816583,0.239306,19.771952
509,2088346333,-95.224770,-51.734661,171.622772,-0.435147,-0.579533,0.243879,6.907300,2.713727,19.072723
510,2088363000,-94.956779,-51.394203,171.406631,0.121559,-0.235878,0.830670,8.463709,4.697013,21.548344
511,2088379667,-94.500793,-51.002220,171.056274,0.093580,-0.030202,0.947480,13.516009,9.664168,25.008799
512,2088396334,-93.954971,-50.609818,170.642136,0.283947,0.194418,-0.055767,16.030170,12.396624,25.125542
513,2088413001,-93.763908,-50.255062,170.548370,1.066356,-0.052062,-0.713188,9.665145,0.616761,21.964491
514,2088429668,-93.688988,-49.971748,170.493927,0.921000,-0.925006,-0.529968,4.531333,-0.544399,17.587282
515,2088446335,-93.644531,-49.860249,170.426056,0.617706,-0.277201,-0.617237,2.090208,0.659418,7.329863
516,2088463002,-93.584000,-49.837254,170.417099,0.360749,0.207846,-0.254556,5.766681,-1.276383,1.884973
517,2088479669,-93.415634,-49.871647,170.297150,-0.125635,0.033390,0.209617,7.139612,3.228052,-1.290125
518,2088496336,-93.225441,-49.961536,170.161011,-0.174762,-0.234678,0.617910,7.695625,4.035890,-4.590744
519,2088513003,-93.087929,-50.130733,170.026535,0.096080,-0.488297,0.324793,4.607822,4.201246,-9.362315
520,2088529670,-92.893456,-50.374187,169.818909,0.164380,-0.492343,-0.210869,4.627444,7.187295,-13.682152
521,2088546337,-92.686356,-50.611534,169.631882,0.057631,-0.467144,-0.308075,6.310059,6.293346,-13.385579
522,2088563004,-92.532219,-50.855339,169.510071,-0.105274,-0.640753,-0.397042,6.123765,3.764270,-13.912561
523,2088579671,-92.440170,-51.144768,169.432648,-0.348745,-0.774143,-0.451028,4.447285,2.152103,-16.732267
524,2088596338,-92.342659,-51.470299,169.304062,-0.628511,-0.524796,-0.043424,2.360028,4.108173,-18.821095
525,2088613005,-92.278366,-51.802097,169.219955,-0.558449,-0.265540,0.289285,2.437455,2.407001,-19.274197
526,2088629672,-92.302292,-52.147533,169.175003,-0.599519,-0.560665,0.152551,-1.031002,0.970127,-20.149002
527,2088646339,-92.476036,-52.522285,169.258179,-0.612358,-0.677393,0.031314,-3.939330,-3.632912,-22.101738
528,2088663006,-92.710495,-52.929562,169.385986,-0.408066,-0.798314,-0.103409,-5.444299,-5.046827,-24.128599
529,2088679673,-92.910553,-53.379913,169.470963,-0.478475,-0.827449,-0.258768,-5.388785,-3.246534,-26.646383
530,2088696340,-93.099586,-53.855289,169.573792,-0.512434,-0.572393,-0.204597,-3.844797,-3.681311,-28.181488
531,2088713007,-93.354622,-54.340775,169.791946,-0.635646,-0.750356,-0.262775,-2.178828,-7.537919,-29.021639
532,2088729674,-93.566803,-54.828411,169.954651,-0.378175,-0.826425,-0.236979,-2.258778,-5.391823,-29.050629
533,2088746341,-93.777573,-55.322968,170.115173,-0.031167,-0.606610,-0.335528,-2.227339,-5.109954,-29.473461
534,2088763008,-93.964714,-55.807156,170.274506,0.017418,-0.637964,-0.574179,-0.824373,-4.941127,-28.857645
535,2088779675,-94.071297,-56.322685,170.383102,-0.192535,-0.902947,-0.387500,1.526479,-2.970364,-30.618139
536,2088796342,-94.212006,-56.868557,170.476517,-0.362981,-1.014398,-0.412575,-1.242144,-2.218068,-32.397831
537,2088813009,-94.299988,-57.432076,170.495193,-0.531904,-0.758933,-0.481026,-1.821313,0.399694,-33.270267
538,2088829676,-94.266556,-57.953003,170.456894,-0.490089,-0.794683,0.108591,2.581545,2.053960,-30.582077
539,2088846343,-94.129524,-58.516781,170.355377,-0.586755,-0.646001,-0.064675,5.559035,4.171281,-33.009998
540,2088863010,-93.836258,-59.138298,170.126282,-0.474306,-0.811581,-0.006095,8.345702,8.186597,-36.209171
541,2088879677,-93.406380,-59.751171,169.763397,-0.414511,-0.896145,-0.283079,9.554413,11.873142,-35.504063
542,2088896344,-92.778694,-60.338829,169.204453,-0.346808,-0.391968,-0.124217,11.112739,17.127928,-33.806450
543,2088913011,-91.961296,-60.889080,168.545868,-0.512812,-0.149452,0.054151,17.124346,19.242235,-31.686655
544,2088929678,-91.146355,-61.434929,167.931427,-0.607153,-0.607837,0.062446,19.116873,17.164215,-31.756231
545,2088946345,-90.253311,-61.955822,167.398788,0.362394,-0.895394,0.185882,27.950684,14.040971,-30.563972
546,2088963012,-89.245514,-62.439308,166.889465,0.523417,-0.874058,0.233110,35.945885,12.628731,-28.570465
547,2088979679,-88.058891,-62.889267,166.311157,0.445863,-0.685599,0.591014,42.889709,13.798470,-26.862148
548,2088996346,-86.331047,-63.300747,165.196518,1.462226,-0.737886,0.193895,46.548496,27.521879,-25.636982
549,2089013013,-84.323082,-63.670292,163.790039,1.599957,-0.731544,-0.269222,47.487217,34.245499,-24.664877
550,2089029680,-82.517334,-63.997227,162.578735,0.948157,-0.350406,-0.525996,45.638275,28.093414,-22.654793
551,2089046347,-80.898514,-64.258423,161.443726,0.178906,0.357462,-0.190428,38.387775,25.644218,-19.289541
552,2089063014,-79.436150,-64.423790,160.316193,-1.260713,0.578510,0.343354,29.302790,25.665125,-14.274466
553,2089079681,-78.207336,-64.474091,159.455933,-1.196561,-0.954564,0.679802,29.688286,19.756237,-6.771093
554,2089096348,-77.331589,-64.477249,158.879227,0.299565,-1.735706,1.063268,23.845556,13.030501,-2.839598
555,2089113015,-76.773911,-64.444641,158.555771,1.207681,-1.732736,0.791860,18.473076,7.089278,0.538706
556,2089129682,-76.684273,-64.433357,158.826263,1.760804,-1.556576,0.180245,22.536972,-8.165204,2.768270
557,2089146349,-77.134430,-64.498856,159.757172,2.124834,-1.107845,-0.106579,25.912127,-25.847948,2.123642
558,2089163016,-77.913147,-64.623627,161.075485,1.887862,-0.361505,0.158405,27.225374,-36.299385,0.526326
559,2089179683,-78.959511,-64.814804,162.718979,1.425746,-0.094085,0.709425,28.904013,-45.067028,-2.301440
560,2089196350,-80.213913,-65.058853,164.573746,0.839412,0.348383,1.050776,28.061758,-50.525932,-5.387109
561,2089213017,-81.459625,-65.264999,166.375244,-0.111488,0.397803,1.113547,25.868084,-48.303493,-4.493565
562,2089229684,-82.661224,-65.464149,168.216141,-0.184181,0.233552,0.832110,30.818735,-48.761330,-4.984572
563,2089246351,-83.755684,-65.651794,170.054001,0.222724,-0.090059,0.479914,37.237621,-48.148388,-5.297544
564,2089263018,-84.897865,-65.821945,172.089890,0.785301,-0.105028,0.226089,45.347179,-52.470970,-4.712433
565,2089279685,-85.964722,-66.000885,174.097168,0.562602,-0.004513,0.060699,48.443699,-51.366432,-6.304792
566,2089296352,-87.187973,-66.218254,176.278168,0.422775,0.049660,0.028876,48.765221,-55.193439,-9.374134
567,2089313019,-88.504539,-66.441635,178.429428,-0.095129,0.031258,0.244077,41.726330,-53.800934,-10.965351
568,2089329686,-90.137756,-66.684113,-179.213806,-0.303174,-0.331128,0.469117,34.251690,-57.926670,-13.404204
569,2089346353,-91.997406,-66.918915,-176.669540,-0.516551,-0.728934,0.237845,31.246534,-61.378384,-14.731378
570,2089363020,-94.413895,-67.177483,-173.522568,-0.293474,-1.422741,-0.235962,31.375731,-74.160934,-19.127974
571,2089379687,-97.455872,-67.423248,-169.662903,-0.272181,-1.470390,-0.448203,33.627201,-88.875023,-23.435427
572,2089396354,-100.827187,-67.556877,-165.451309,-0.499323,-1.246713,-0.328442,33.657001,-95.745316,-22.819427
573,2089413021,-104.474144,-67.576202,-160.938828,-0.288359,-1.112547,-0.091636,33.930397,-102.059677,-23.297859
574,2089429688,-107.718140,-67.686653,-156.813675,0.040909,-0.259549,-0.052794,36.730362,-90.170891,-32.020981
575,2089446355,-110.688438,-67.711952,-152.833740,0.185814,0.093920,-0.570853,45.196030,-86.583595,-30.784082
576,2089463022,-113.618126,-67.562248,-148.763550,0.502384,-0.098785,-0.490036,52.547749,-90.954765,-26.271879
577,2089479689,-116.591026,-67.256409,-144.615677,0.462411,-0.066212,0.054939,53.897385,-95.866409,-23.512457
578,2089496356,-119.238052,-66.907455,-140.785675,0.162202,-0.445165,0.287024,55.320572,-90.385841,-22.960175
579,2089513023,-121.606453,-66.496979,-137.159668,0.563572,-0.372429,0.077473,60.196980,-88.183266,-21.904409
580,2089529690,-123.448318,-65.987518,-133.988724,1.595252,-0.871742,-0.351704,66.101753,-82.579216,-15.015818
581,2089546357,-125.068321,-65.490219,-131.017487,1.653655,-1.063348,0.125323,67.809814,-78.860794,-16.151396
582,2089563024,-126.411942,-64.994186,-128.394257,1.033488,-1.247400,1.382154,64.794342,-72.415756,-13.924278
583,2089579691,-127.541504,-64.384079,-125.913689,1.029863,-0.949623,1.450385,69.257210,-74.386292,-8.614661
584,2089596358,-128.664001,-63.814972,-123.409729,1.086905,-0.619483,0.005544,70.269035,-74.247887,-13.207940
585,2089613025,-129.595016,-63.241837,-121.021774,0.452438,-0.363243,-0.500537,74.870132,-72.788651,-13.214605
586,2089629692,-129.991318,-62.613853,-119.115715,-0.210063,-0.465317,0.643742,80.525223,-65.651474,-3.947477
587,2089646359,-130.061600,-61.987785,-117.457153,-0.133165,-0.943578,0.619027,86.351791,-61.129837,-0.565128
588,2089663026,-129.783310,-61.402439,-116.085144,0.632651,-0.826682,-0.240685,91.642357,-54.029808,2.302757
589,2089679693,-129.275116,-60.881577,-114.913277,1.091281,-0.789513,0.229357,94.529045,-47.627716,2.928422
590,2089696360,-128.623459,-60.429798,-113.902023,0.303944,-1.517290,0.685294,94.439339,-41.732304,2.816216
591,2089713027,-127.943459,-59.999218,-112.869316,-0.368093,-1.812921,0.903234,97.026642,-41.739223,1.637657
592,2089729694,-126.957138,-59.581825,-112.112724,0.310362,-1.353248,1.058650,100.858742,-34.941727,6.422073
593,2089746361,-125.459076,-59.284492,-112.019020,1.063915,-1.775959,1.128409,97.161102,-14.427965,13.146193
594,2089763028,-123.745628,-59.001034,-112.322334,0.792832,-1.774087,0.672337,89.629654,-3.565137,19.738430
595,2089779695,-121.971062,-58.758083,-112.936127,-0.332671,-1.531361,0.006400,77.392540,6.481475,23.015585
596,2089796362,-120.137497,-58.624451,-113.710953,-0.380985,-1.868210,-0.751100,72.738129,14.959888,19.780502
597,2089813029,-118.213531,-58.529346,-114.602501,0.218575,-2.356153,-0.475046,72.227089,19.964245,19.032141
598,2089829696,-116.184784,-58.304211,-115.538773,0.170853,-1.798604,0.080151,76.314690,18.379173,25.918888
599,2089846363,-113.926331,-58.055340,-116.874268,1.688203,-2.023473,-0.694437,69.863632,30.333626,31.877890
600,2089863030,-111.867340,-57.898788,-118.272514,0.815979,-2.126254,-0.531568,54.848068,35.703407,26.427155
601,2089879697,-109.616798,-57.644108,-119.775742,0.595858,-1.799849,-0.590566,61.185524,37.938068,31.788414
602,2089896364,-107.231331,-57.265629,-121.298698,0.841732,-1.798198,-1.344063,68.538231,37.828495,37.547737
603,2089913031,-105.036079,-56.811794,-122.542847,1.166707,-1.443993,-0.783940,71.519714,29.809935,37.913570
604,2089929698,-103.058426,-56.247662,-123.618874,0.708622,-1.303366,-1.494106,67.236710,24.685678,41.952705
605,2089946365,-101.340485,-55.592567,-124.610466,0.250709,-0.842706,-1.654335,56.236973,22.631260,45.938023
606,2089963032,-100.005211,-54.968414,-125.530243,-0.575477,-1.307994,-1.843349,37.198753,22.301163,43.099049
607,2089979699,-99.149559,-54.390930,-126.232918,-0.796349,-1.785561,-1.501207,19.374454,16.618855,38.703262
608,2089996366,-98.551170,-53.782150,-127.125015,-0.758268,-2.818873,-1.672305,-5.014777,23.748705,41.406075
609,2090013033,-98.459023,-53.274876,-128.125595,-0.965547,-3.327770,-1.719628,-40.323685,29.139297,35.864704
610,2090029700,-99.380783,-52.864910,-128.980499,-0.048942,-2.271549,-0.648857,-93.888260,24.979902,29.568077
611,2090046367,-100.657684,-52.403885,-129.387238,-0.482804,0.643455,0.861953,-93.592201,8.119883,30.297180
612,2090063034,-102.059135,-51.792854,-128.224625,1.296908,4.311189,1.576462,-26.615833,-50.889725,27.973783
613,2090079701,-102.572899,-51.314262,-126.877869,2.254124,3.148329,1.701245,34.873447,-56.864906,17.806946
614,2090096368,-101.871941,-51.050087,-126.703415,2.217222,-0.826186,1.313789,52.633720,-11.420892,14.572460
615,2090113035,-101.619156,-51.001038,-127.189392,-0.699794,-3.156225,-1.634516,-5.087276,15.705716,7.088494
616,2090129702,-102.911507,-50.696213,-126.653015,-1.592880,-2.463174,-3.174683,-50.170258,-25.391216,14.024955
617,2090146369,-105.218346,-50.243530,-125.667587,-0.769531,0.864557,-1.535939,-90.395844,-44.758759,17.668032
618,2090163036,-106.906052,-49.929882,-125.557854,-1.519965,0.907730,-0.327081,-93.803886,-10.912235,17.380529
619,2090179703,-108.450363,-49.587704,-125.684746,-2.049082,-0.112267,0.006302,-96.053947,-3.193155,21.515066
620,2090196370,-109.985962,-49.204067,-125.762634,-2.060193,-0.359866,0.863631,-93.281044,-6.340555,23.196831
621,2090213037,-111.542427,-48.779434,-125.756859,-1.536863,-0.646609,1.250739,-90.729843,-10.873138,24.202003
622,2090229704,-113.432327,-48.301647,-125.452637,-0.946147,-0.670230,1.003091,-97.314629,-23.755236,22.317793
623,2090246371,-115.537811,-47.821541,-124.868958,0.060621,-1.226877,1.347369,-97.885033,-34.862667,16.967340
624,2090263038,-118.027512,-47.348354,-124.323486,0.479084,-0.730473,1.223194,-122.832962,-34.116253,15.847926
625,2090279705,-120.526596,-46.951576,-124.307945,-0.688503,-0.510639,1.322650,-146.867844,-13.811757,20.896917
626,2090296372,-122.799561,-46.498093,-124.714363,-1.326336,-0.297777,2.283414,-151.742249,-1.659933,32.371662
627,2090313039,-124.472305,-46.123657,-125.653465,-2.449802,0.814968,2.786987,-138.713562,18.360270,40.695396
628,2090329706,-125.358932,-45.940372,-127.054428,-3.003536,0.210651,1.909109,-111.312881,39.969376,42.855064
629,2090346373,-125.725166,-46.073048,-128.600815,-1.493943,-0.072295,1.162199,-86.343903,55.479610,31.423758
630,2090363040,-125.664482,-46.487946,-130.234482,1.070291,0.100124,0.401321,-64.826866,67.960747,19.752804
631,2090379707,-125.824654,-47.212185,-131.430771,2.596325,0.761449,-0.985095,-59.596992,63.648247,-6.152887
632,2090396374,-126.223717,-48.123295,-132.243301,1.462525,0.545522,-0.343962,-57.596951,57.126766,-24.470787
633,2090413041,-126.832977,-48.901627,-132.971466,-0.471958,-1.280427,0.756372,-66.891426,49.480019,-19.874132
634,2090429708,-127.316406,-49.550190,-133.852600,-1.570428,-0.481502,1.036779,-66.650833,49.437717,-9.804476
635,2090446375,-127.380287,-50.203880,-135.029984,-0.882540,-0.762010,1.281290,-55.464588,58.421089,-3.130759
636,2090463042,-127.481613,-50.992603,-136.103317,-0.188436,-1.029546,1.143600,-53.448639,59.661377,-12.304459
637,2090479709,-127.734116,-51.812534,-136.802155,0.564382,-1.366777,1.239143,-45.525856,49.181190,-22.584410
638,2090496376,-127.842033,-52.719414,-137.510300,1.072393,-1.086447,0.848759,-37.679977,52.328587,-26.641176
639,2090513043,-127.781036,-53.658161,-138.292114,0.791027,-1.461027,0.345886,-31.498173,55.175690,-26.843254
640,2090529710,-127.648422,-54.615463,-138.943817,0.409037,-1.154268,-0.057762,-21.336121,51.695694,-30.996986
641,2090546377,-127.462982,-55.650040,-139.620590,-0.598556,-1.343997,0.024177,-19.786478,54.679295,-34.639103
642,2090563044,-127.234322,-56.684265,-140.337540,-0.153443,-1.920718,0.908433,-19.618456,55.128792,-34.372620
643,2090579711,-127.042534,-57.830181,-141.053909,-1.602480,-0.285226,-0.069711,-22.243681,58.481331,-40.347462
644,2090596378,-126.208405,-58.800854,-142.327454,-1.905917,-0.007243,-1.336164,-12.570677,65.398796,-22.369345
645,2090613045,-125.313438,-59.758083,-143.692932,-0.815490,-0.985296,-0.872558,-14.334493,65.971573,-21.709877
646,2090629712,-124.300186,-60.722519,-145.121475,-0.720978,-0.859347,-0.438211,-11.210198,66.405914,-22.787075
647,2090646379,-123.442818,-61.571384,-146.214600,0.456774,-1.418424,-0.705671,-3.595848,53.108189,-24.210310
648,2090663046,-122.427620,-62.626518,-147.277924,1.167274,-1.062879,-0.956686,6.934633,57.919655,-36.462627
649,2090679713,-121.504311,-63.849545,-148.451904,-0.007377,-0.941004,-0.869395,-5.085102,64.201790,-45.022270
650,2090696380,-120.325096,-64.975327,-149.921814,-0.520790,-1.332084,-0.760601,-6.380497,65.823448,-37.937653
651,2090713047,-118.974586,-65.969849,-151.366592,0.317771,-1.504786,-0.374870,4.580093,59.237911,-33.612648
652,2090729714,-117.581520,-66.861069,-152.463364,2.247842,0.057256,-0.308975,25.695890,46.963749,-34.177662
653,2090746381,-115.584312,-67.777122,-154.048355,2.461499,-0.064086,-1.094442,34.519306,55.829010,-32.300472
654,2090763048,-113.812447,-68.449478,-155.539841,2.048882,-0.816434,-1.985581,25.702784,45.607143,-22.271061
655,2090779715,-112.645332,-68.959259,-156.647202,0.592378,0.060857,-0.757776,10.569682,32.681606,-18.160770
656,2090796382,-111.636391,-69.356499,-157.792175,-0.440623,0.807319,0.767576,-1.211613,30.069550,-12.437111
657,2090813049,-110.802307,-69.690460,-158.834671,-0.459560,1.334971,1.233366,-6.098991,26.095123,-10.328723
658,2090829716,-109.765236,-69.890495,-160.026840,0.401372,1.221265,0.614492,-2.449848,25.785501,-2.258367
659,2090846383,-108.625961,-69.893677,-161.326752,1.854111,-0.465880,0.067659,-2.419048,23.836018,9.060737
660,2090863050,-107.845345,-69.830368,-162.270721,1.517627,-0.225863,-0.258402,-3.870109,15.778974,10.131034
661,2090879717,-107.868233,-69.622513,-162.256409,1.332133,-0.295600,-0.454434,1.895115,-5.659367,12.197488
662,2090896384,-108.610878,-69.328728,-161.281693,1.007731,0.367163,-0.637090,12.674863,-26.544075,10.731084
663,2090913051,-109.525352,-69.035835,-159.941757,1.881818,0.944434,-0.211715,22.745287,-34.302406,7.683467
664,2090929718,-110.892319,-68.705826,-157.912140,1.747599,1.283033,0.512803,34.030880,-49.586742,3.816872
665,2090946385,-111.996254,-68.367279,-156.119339,1.361693,0.953075,0.960968,36.334618,-45.618496,4.916730
666,2090963052,-112.965347,-68.052261,-154.572235,0.652779,1.115431,1.187811,30.514950,-40.622627,4.687967
667,2090979719,-113.980820,-67.695503,-153.003433,1.018184,0.041137,0.795528,28.729385,-42.602283,5.912715
668,2090996386,-115.012726,-67.336472,-151.509613,0.671502,0.111173,0.213225,23.370832,-41.679127,5.784693
669,2091013053,-116.199249,-66.901787,-149.781448,0.077461,0.135598,-0.064853,26.801769,-49.186131,6.489799
670,2091029720,-117.300125,-66.495232,-148.168015,-0.315042,0.611749,0.224161,25.320974,-46.733170,4.939913
671,2091046387,-118.518280,-66.075043,-146.348587,-0.268954,0.390641,0.142704,29.315517,-52.155239,2.120611
672,2091063054,-119.967659,-65.669617,-144.160233,0.014718,0.317499,-0.056774,35.320553,-60.273113,-4.602579
673,2091079721,-121.406494,-65.277847,-141.869293,0.779075,-0.747477,0.041183,41.173656,-62.621864,-8.514575
674,2091096388,-122.877602,-64.925697,-139.354782,0.734283,-0.416747,0.160282,51.022968,-66.583168,-15.509218
675,2091113055,-124.075760,-64.567360,-136.970764,1.082039,-0.817020,0.259621,59.924152,-64.321526,-15.338272
676,2091129722,-125.013306,-64.112556,-134.618668,1.786746,-0.824202,0.644721,73.401451,-67.377144,-11.791724
677,2091146389,-125.801758,-63.566631,-132.425110,0.983444,-0.470481,0.730513,73.266357,-67.843040,-6.539549
678,2091163056,-126.572029,-62.815987,-130.193939,0.425515,-0.187716,0.605110,75.704346,-76.894669,1.081701
679,2091179723,-127.197250,-61.941021,-128.089890,0.376877,0.390832,0.127033,76.779343,-79.903847,7.240045
680,2091196390,-127.675186,-61.131435,-126.156898,-0.035030,0.733449,-0.146403,75.723160,-75.000519,5.347102
681,2091213057,-128.121613,-60.357079,-124.411758,0.081803,0.589590,-0.385165,66.999596,-70.507263,5.614575
682,2091229724,-128.696701,-59.528767,-122.542717,-0.145206,-0.126405,-0.452848,64.980042,-76.476250,4.435221
683,2091246391,-129.273499,-58.673901,-120.662247,0.039839,0.158991,0.872518,64.634239,-78.897247,3.804554
684,2091263058,-129.841324,-57.795109,-118.675087,0.602854,0.250577,1.710318,69.720879,-83.568520,1.065232
685,2091279725,-130.305023,-56.894386,-116.718880,1.241077,0.705747,1.398977,73.410011,-84.851143,0.972384
686,2091296392,-130.476028,-56.243851,-115.363739,1.145850,-0.472406,0.251926,60.007603,-61.016888,1.094544
687,2091313059,-130.532394,-55.587971,-114.283974,0.077051,-1.257976,-0.903829,52.687847,-54.772697,6.732097
688,2091329726,-130.247040,-54.937428,-113.542366,-0.432614,-1.025154,-0.297069,56.083549,-46.217152,13.701439
689,2091346393,-129.606628,-54.261135,-113.094315,0.088407,-0.845642,0.600738,62.732529,-39.601757,21.527512
690,2091363060,-128.908096,-53.600281,-112.755409,0.250548,-0.897039,0.818512,60.744549,-35.983673,23.529556
691,2091379727,-128.293320,-53.065010,-112.520958,-0.157949,-1.079618,0.728890,50.560986,-28.226076,20.266960
692,2091396394,-127.645012,-52.531757,-112.200447,-0.238165,-1.440096,1.173116,56.604256,-30.478462,18.479755
693,2091413061,-127.109657,-52.012520,-111.854782,0.129808,-1.287132,1.409019,50.905067,-30.630045,17.467657
694,2091429728,-126.420898,-51.437305,-111.647675,0.744933,-0.727255,1.548228,53.461609,-28.460459,23.455732
695,2091446395,-125.202698,-51.105228,-112.096893,0.742249,-0.945290,0.246695,54.441849,0.376082,26.444841
696,2091463062,-123.594994,-50.858791,-112.843933,0.158159,-0.374089,-0.838415,64.010750,13.286320,28.566479
697,2091479729,-121.778831,-50.597229,-113.717278,0.658464,-0.265686,-0.852765,70.776894,17.792839,31.548189
698,2091496396,-120.071365,-50.493633,-114.597816,1.288820,-0.077738,-0.959833,64.028709,23.954248,23.016743
699,2091513063,-118.493179,-50.550537,-115.587234,0.669182,-1.345742,0.267984,51.236317,32.940178,15.918957
700,2091529730,-116.954994,-50.529015,-116.582085,-0.265586,-0.297649,0.363882,48.575218,31.318958,19.228378
701,2091546397,-115.319168,-50.394321,-117.689407,-0.938315,-0.761285,-0.101309,49.283909,32.751411,26.324104
702,2091563064,-113.871925,-50.100311,-118.388329,1.221976,0.120980,-0.807981,56.969036,15.377294,27.642363
703,2091579731,-112.351387,-50.072586,-119.466850,1.639803,-0.901532,-0.759458,43.970863,35.868797,18.272461
704,2091596398,-111.184212,-50.041615,-120.570450,0.575940,-1.397207,-0.547463,21.634348,37.123043,17.935360
705,2091613065,-110.165970,-49.920071,-121.661705,-0.935325,-0.807650,0.394156,13.333401,35.139877,22.129717
706,2091629732,-109.037148,-49.813457,-122.885284,-1.075895,0.561291,0.571705,13.974448,40.760532,22.347654
707,2091646399,-107.708969,-49.808765,-124.236732,-0.475793,0.817267,-0.279971,20.123629,47.897793,17.210308
708,2091663066,-106.810089,-49.876179,-125.011383,0.030357,0.101744,-0.864371,20.780191,28.158195,5.484657
709,2091679733,-106.533188,-49.943169,-125.196167,0.437168,0.870134,-0.159632,10.509197,6.323273,-1.351468
710,2091696400,-106.466408,-50.071705,-125.199036,0.183985,1.134411,0.364511,6.245691,0.627633,-6.909719
711,2091713067,-106.464951,-50.273659,-125.144035,0.168910,0.589164,0.546143,4.998384,-0.259395,-11.769733
712,2091729734,-106.539398,-50.514603,-125.125366,-0.186498,0.144430,0.497022,-1.227758,1.754349,-13.612145
713,2091746401,-106.616020,-50.739910,-125.136566,-0.458939,0.024709,0.360872,-2.738998,2.599633,-12.383106
714,2091763068,-106.697250,-50.917427,-125.114571,-0.301190,0.720395,0.374002,-1.473653,0.590892,-9.991364
715,2091779735,-106.740303,-51.036644,-125.079742,0.029999,1.110608,0.471781,1.416543,-0.862956,-6.776059
716,2091796402,-106.723114,-51.152679,-125.152710,-0.602072,0.430350,0.193447,0.004463,2.977291,-5.424411
717,2091813069,-106.985718,-51.235577,-124.966919,-0.986200,0.064523,-0.110506,-4.694924,-6.902150,-6.333574
718,2091829736,-107.374741,-51.263035,-124.641243,-0.476873,0.348525,0.041620,-5.724507,-12.852438,-4.735139
719,2091846403,-107.785133,-51.317703,-124.364868,-0.164679,0.489919,0.248645,-9.306471,-10.551415,-5.805801
720,2091863070,-108.166595,-51.449673,-124.168633,-0.098469,0.741334,0.457478,-11.308055,-6.198355,-9.346952
721,2091879737,-108.399017,-51.594574,-124.116478,0.094560,0.777944,0.507554,-9.119137,-0.771929,-8.410151
722,2091896404,-108.690170,-51.681599,-124.024773,-0.208768,0.670647,0.076236,-10.771029,-3.227086,-5.584544
723,2091913071,-108.994232,-51.780609,-123.882431,-0.396569,0.349158,0.475838,-9.158838,-4.735650,-6.878384
724,2091929738,-109.260689,-51.882786,-123.767715,-0.177007,0.475256,0.158840,-8.195669,-3.657008,-6.735476
725,2091946405,-109.392838,-52.048836,-123.722198,0.286882,0.519553,0.167730,-3.397820,0.064230,-9.506809
726,2091963072,-109.474693,-52.149937,-123.775734,0.207181,0.681269,0.008669,-5.064310,2.232102,-4.613001
727,2091979739,-109.537247,-52.193569,-123.799583,-0.160406,0.761038,-0.160872,-2.502847,0.058570,-1.724029
728,2091996406,-109.609154,-52.280975,-123.898323,-0.223578,0.104852,-0.051813,-6.613047,3.533164,-3.277606
729,2092013073,-109.890938,-52.370655,-123.828964,-0.220384,0.247051,0.083938,-11.230842,-2.215103,-5.472336
730,2092029740,-110.175430,-52.475555,-123.748055,-0.041798,0.557730,0.057881,-10.843782,-2.263319,-6.476994
731,2092046407,-110.305832,-52.579018,-123.727249,-0.078870,0.560770,-0.076038,-4.451065,-0.199382,-5.637676
732,2092063074,-110.513969,-52.648319,-123.601990,0.058145,0.310639,-0.096260,-4.132059,-4.464422,-5.039363
733,2092079741,-110.831764,-52.702213,-123.405663,0.291809,0.245712,0.054210,-7.318396,-7.177181,-5.098671
734,2092096408,-111.203934,-52.739613,-123.126686,0.518094,0.249207,-0.190273,-6.626150,-10.291508,-5.284427
735,2092113075,-111.578781,-52.788906,-122.798637,0.249386,0.204018,-0.128298,-4.438709,-11.644552,-6.649880
736,2092129742,-111.807755,-52.880310,-122.602470,0.142472,-0.011248,-0.232110,-1.975832,-6.211954,-7.277877
737,2092146409,-111.946167,-52.992638,-122.505280,0.044942,-0.024775,-0.175913,-1.262130,-2.383954,-7.119704
738,2092163076,-112.244347,-53.014572,-122.267151,-0.074605,0.010307,0.013680,-4.093218,-9.099607,-4.008735
739,2092179743,-112.698784,-52.921970,-121.917404,0.271481,0.098715,0.095590,-8.133731,-15.432934,0.749217
740,2092196410,-113.199165,-52.824535,-121.688087,-0.230587,0.451050,0.034967,-16.668537,-11.556709,2.587994
741,2092213077,-113.460358,-52.761253,-121.720337,-0.378534,0.831920,0.133185,-14.828535,-2.056829,4.391589
742,2092229744,-113.536751,-52.711540,-121.871780,0.145214,0.730234,-0.242227,-9.434289,2.229683,5.374027
743,2092246411,-113.760605,-52.682781,-121.914673,0.092415,-0.008069,-0.018250,-13.090940,-0.889171,2.648758
744,2092263078,-114.193787,-52.629307,-121.872391,-0.069157,-0.533081,0.503444,-21.587984,-4.335111,2.746192
745,2092279745,-114.771820,-52.555321,-121.763367,0.133472,-0.222062,0.367174,-27.100399,-7.079741,2.832856
746,2092296412,-115.281357,-52.603024,-121.837692,0.238209,0.260623,-0.240088,-31.731434,2.042614,-1.006211
747,2092313079,-115.791649,-52.687183,-121.934013,-0.320132,0.297662,-0.195867,-32.826748,3.720816,-2.606576
748,2092329746,-116.284645,-52.733089,-121.999146,0.078143,-0.019958,0.188757,-30.309731,1.717369,-0.997259
749,2092346413,-116.902512,-52.783115,-122.036453,0.060307,0.012965,0.277829,-36.471249,0.939126,-1.642409
750,2092363080,-117.609947,-52.843838,-122.010651,0.325559,-0.008227,0.148590,-38.827919,-0.778989,-3.233813
751,2092379747,-118.216927,-52.994949,-122.064323,0.533728,0.265947,0.227886,-36.601807,4.350550,-6.671463
752,2092396414,-118.706314,-53.284622,-122.285194,0.433326,0.338517,-0.011979,-37.579090,13.663402,-11.059861
753,2092413081,-119.013832,-53.670795,-122.663918,-0.356590,0.236909,0.318192,-34.332939,21.420340,-13.333083
754,2092429748,-119.005417,-54.078732,-123.268196,-0.448305,0.123162,0.422363,-26.392269,28.959373,-10.608687
755,2092446415,-118.862175,-54.533821,-124.024284,-0.253948,-0.822957,0.363649,-25.860769,34.771614,-10.660144
756,2092463082,-119.020584,-54.926388,-124.548035,-0.345562,-0.282665,0.355293,-32.773212,25.678041,-11.399505
757,2092479749,-119.161613,-55.375614,-125.144554,-0.390037,0.695213,0.336688,-35.445244,29.376143,-13.177418
758,2092496416,-119.040977,-56.011753,-126.004387,-0.592562,0.405164,-0.314405,-32.986790,42.372189,-18.774771
759,2092513083,-118.896851,-56.694092,-126.922592,-1.080492,-0.103397,-0.191707,-34.821556,44.941399,-20.597908
760,2092529750,-119.165573,-57.271084,-127.598579,-0.609780,-0.898174,-0.363952,-47.737823,34.531460,-19.110136
761,2092546417,-119.638390,-57.813633,-128.235321,-0.019556,-0.290609,0.602955,-58.207752,32.257133,-17.863873
762,2092563084,-119.717003,-58.319660,-129.243134,-0.049102,0.499888,0.748110,-53.641251,41.235500,-10.107847
763,2092579751,-119.328911,-58.753773,-130.466248,0.409949,0.075187,0.248668,-36.908978,44.581512,-3.357506
764,2092596418,-119.777107,-59.091335,-130.824814,0.741313,0.066075,0.028198,-42.918022,18.071077,-11.712424
765,2092613085,-120.680618,-59.373455,-130.781738,0.320306,-0.002976,0.344210,-49.582859,5.803144,-14.869339
766,2092629752,-121.338951,-59.647427,-130.768723,0.619307,0.714050,0.420604,-36.420872,6.553077,-13.870724
767,2092646419,-121.488586,-60.086636,-131.124756,0.804463,0.566967,0.235439,-25.051285,21.314665,-16.477674
768,2092663086,-121.634949,-60.556190,-131.620117,0.261270,-0.010447,0.201670,-32.194828,25.714893,-15.879930
769,2092679753,-121.958824,-60.946095,-131.933136,0.204361,-0.357884,0.150512,-33.407764,18.557285,-14.626705
770,2092696420,-121.970169,-61.322170,-132.334595,0.858032,0.575321,0.385737,-19.357885,20.243670,-12.572457
771,2092713087,-121.266022,-61.845272,-133.462646,0.991365,0.347481,0.271181,-14.870256,42.316624,-9.418730
772,2092729754,-120.565353,-62.379524,-134.788269,0.122770,0.128523,0.061646,-25.844696,46.824188,-7.966284
773,2092746421,-119.964706,-62.783714,-135.987106,0.316717,0.323708,0.525499,-25.388416,39.269897,-3.833956
774,2092763088,-119.293015,-63.129807,-137.172974,0.444430,1.093001,0.612977,-20.648626,36.827625,-1.638877
775,2092779755,-118.254112,-63.467613,-138.568344,0.896562,0.563127,-0.041292,-10.026834,41.172993,0.759543
776,2092796422,-117.448448,-63.797054,-139.859039,0.730464,-0.139563,-0.385526,-18.613123,38.089249,-0.991013
777,2092813089,-116.948807,-64.114662,-140.848587,0.345886,0.307563,0.035969,-20.934374,30.345476,-4.619195
778,2092829756,-116.427269,-64.490372,-141.825607,-0.307999,1.015378,0.200652,-19.095091,31.285484,-8.306688
779,2092846423,-115.880692,-64.809303,-142.832077,0.153766,0.296648,-0.041945,-19.343285,30.094580,-5.363336
794,2093096428,-128.473160,-63.174522,-129.462128,0.309409,-0.449036,-0.161885,21.513750,-67.139046,-8.373748
795,2093113095,-129.864563,-62.611374,-127.383484,1.121259,0.343107,0.140445,29.960430,-66.930092,-9.309895
796,2093129762,-131.046478,-62.146801,-125.422165,1.571765,0.266295,-0.035212,35.780079,-61.130985,-13.807342
797,2093146429,-132.139084,-61.656151,-123.494286,1.035200,0.235579,-0.159279,38.911205,-61.818451,-13.766607
798,2093163096,-133.149643,-61.091248,-121.653854,0.727795,0.204825,0.203637,38.716396,-63.409885,-10.529602
799,2093179763,-134.111069,-60.441826,-119.918770,0.301829,0.081228,0.625006,35.581570,-65.221489,-6.500592
800,2093196430,-134.832153,-59.726536,-118.358383,0.207116,0.263137,0.974361,40.306915,-64.920807,-1.707928
801,2093213097,-135.342438,-59.015743,-116.881668,0.769964,0.324495,0.591577,48.040596,-63.611477,-1.482189
802,2093229764,-135.876587,-58.213882,-115.325844,0.500292,-0.202887,0.042302,50.052708,-69.929955,-0.707838
803,2093246431,-136.345657,-57.263092,-113.637489,0.236305,-0.054446,0.097709,59.930805,-80.142937,0.951385
804,2093263098,-136.575653,-56.293232,-112.028816,0.444338,0.067133,0.212836,69.346268,-80.157005,2.125919
805,2093279765,-136.724701,-55.306198,-110.401855,0.503225,-0.229920,0.434791,74.194313,-82.279976,1.126591
806,2093296432,-136.671280,-54.354633,-108.889847,0.392567,-0.439118,0.665576,79.755554,-78.944443,1.505767
807,2093313099,-136.437820,-53.467987,-107.566917,0.481696,-0.718874,0.219884,80.541267,-72.336502,3.013299
808,2093329766,-136.079727,-52.581028,-106.407280,0.688562,-0.549560,0.240616,79.453842,-68.948364,6.941229
809,2093346433,-135.632843,-51.666050,-105.348701,0.640572,-0.568999,0.450182,79.324867,-68.125961,10.633135
810,2093363100,-135.151108,-50.668221,-104.504158,0.622983,-0.892496,0.701118,70.756393,-66.515755,19.803726
811,2093379767,-134.538040,-49.697933,-103.891129,0.467748,-1.004440,0.833521,67.403091,-59.337269,25.054554
812,2093396434,-133.637756,-48.812595,-103.564384,0.634804,-0.921950,1.188169,71.240685,-47.745117,29.641569
813,2093413101,-132.421341,-48.110767,-103.529915,0.597747,-0.633699,0.753728,76.892197,-31.335716,30.239201
814,2093429768,-131.378845,-47.610355,-103.563713,-0.291770,-0.967203,0.278623,63.407932,-20.640562,23.650654
815,2093446435,-130.236694,-47.145809,-103.577820,-0.263694,-1.040208,0.563121,70.257133,-19.385212,21.872726
816,2093463102,-129.110733,-46.701214,-103.589828,0.051878,-0.739524,0.550771,69.381287,-18.259308,21.253906
817,2093479769,-127.835075,-46.319538,-103.736984,0.055137,-0.590243,0.488935,72.481133,-11.103155,22.117144
818,2093496436,-126.473808,-46.118660,-103.935608,0.238089,-0.479345,0.257142,75.419952,-2.324644,14.998885
819,2093513103,-124.849586,-46.019371,-104.456627,0.120571,-0.730000,0.085509,77.283165,12.527835,17.905355
820,2093529770,-123.160172,-45.931980,-105.127052,0.229445,-0.409756,0.436050,74.786270,18.616796,20.403975
821,2093546437,-121.496826,-45.990875,-105.908142,1.074365,-0.505069,0.432672,68.455788,27.789536,14.863518
822,2093563104,-119.977112,-46.070934,-106.828995,-0.079084,-0.023710,-0.306727,53.763809,33.791679,15.901795
823,2093579771,-118.529236,-45.966972,-107.620361,0.310148,-0.583106,-0.997972,55.052803,24.086460,21.983347
824,2093596438,-117.431389,-45.734894,-108.116783,0.253037,-0.469241,-0.676346,46.843811,10.150816,22.463217
825,2093613105,-116.344131,-45.568836,-108.748512,-1.192605,-0.443445,0.006851,40.475826,17.484163,21.299913
826,2093629772,-115.069618,-45.635983,-109.832848,-0.033976,-0.387064,0.034254,32.327877,41.123035,16.555384
827,2093646439,-113.904297,-45.598576,-110.987587,-1.085317,-0.576668,-0.790284,22.749161,41.529728,22.569613
828,2093663106,-112.747536,-45.586178,-112.126495,-1.323530,-0.142501,-0.725257,22.934755,41.972229,20.061497
829,2093679773,-111.539108,-45.753853,-113.320770,-1.659447,0.017035,-0.741485,23.593075,48.532310,10.006238
830,2093696440,-110.740860,-45.897102,-114.211205,0.001169,0.066851,-0.402967,11.923393,36.185493,5.864115
831,2093713107,-110.417854,-45.906296,-114.740593,0.881122,0.578046,0.318165,-1.086326,19.252768,7.707430
832,2093729774,-110.282822,-45.816711,-115.027534,0.937527,0.873402,1.392033,-1.902922,7.735981,9.659111
833,2093746441,-110.133812,-45.760529,-115.124359,0.223132,0.762263,1.560078,7.129251,1.002052,5.009659
834,2093763108,-109.964256,-45.720623,-115.129234,0.104191,0.608613,1.254970,12.316698,-2.264843,2.765846
835,2093779775,-109.769226,-45.806751,-115.321915,-0.721517,0.164970,0.101676,5.771318,7.706218,-1.670218
836,2093796442,-109.738182,-45.927036,-115.536507,-1.202338,0.146619,-0.886418,-5.025585,9.244810,-3.312415
837,2093813109,-109.716110,-46.010120,-115.698601,-0.721306,0.897049,-0.757447,-3.319900,6.418820,-1.957543
838,2093829776,-109.696381,-46.059498,-115.781212,-0.436571,0.972490,-0.114864,-0.032989,2.612553,-1.174611
839,2093846443,-109.996658,-46.098801,-115.735550,-0.560084,0.545819,-0.076728,-13.690662,-2.609897,-2.409798
840,2093863110,-110.509193,-46.144989,-115.663834,-0.532417,-0.559891,-0.003044,-25.295750,-3.460886,-3.178492
841,2093879777,-111.204834,-46.204182,-115.477425,-0.828990,0.378922,0.751068,-31.314516,-7.592760,-5.622060
842,2093896444,-111.668945,-46.303349,-115.523964,-0.486278,1.272624,0.852986,-27.511095,2.357790,-4.377964
843,2093913111,-111.855522,-46.471127,-115.767677,-0.516051,0.979881,0.587830,-19.426678,11.487577,-5.152925
844,2093929778,-112.141380,-46.498985,-115.907318,-0.465711,0.468559,0.193415,-20.870859,4.366684,1.064651
845,2093946445,-112.524956,-46.478680,-115.876907,-0.216653,1.024675,-0.058910,-19.336845,-3.228037,1.104607
846,2093963112,-112.773003,-46.542801,-115.943977,0.074025,0.390737,-0.498239,-15.447380,2.436634,-2.028387
847,2093979779,-113.249756,-46.630848,-115.942261,0.119660,-0.468077,-0.271420,-26.176510,0.399706,-4.437911
848,2093996446,-113.909576,-46.719151,-115.930275,-0.036852,-0.217826,-0.234618,-36.709011,0.068610,-4.601701
849,2094013113,-114.633347,-46.783092,-115.963936,-0.195197,-0.233932,-0.287454,-42.536804,1.237889,-2.479171
850,2094029780,-115.335396,-46.827461,-116.090141,-0.534003,0.032521,-0.205038,-45.283524,4.224225,0.225221
851,2094046447,-116.005447,-46.847816,-116.245789,-0.611605,0.005445,-0.183269,-44.661694,4.695859,2.120177
852,2094063114,-116.701874,-46.843876,-116.368462,-0.488001,-0.372780,0.042099,-44.798862,2.815464,2.896094
853,2094079781,-117.451454,-46.795273,-116.485466,-0.336102,-0.458638,0.085821,-47.736309,1.360871,5.231263
854,2094096448,-118.176003,-46.746895,-116.685547,-0.239787,-0.162106,0.313336,-49.862293,4.329719,6.851376
855,2094113115,-118.662819,-46.776817,-117.100792,-0.081945,0.322179,0.469826,-45.006824,14.280495,6.993277
856,2094129782,-118.869202,-46.965794,-117.811722,0.438516,0.713245,0.441072,-41.156006,29.436190,4.540871
857,2094146449,-119.094482,-47.272877,-118.630745,0.357862,0.272249,-0.309672,-47.164791,36.597759,0.532104
858,2094163116,-119.643402,-47.474979,-119.196388,0.325420,0.141438,-0.373770,-55.543549,24.399992,1.147316
859,2094179783,-120.437683,-47.572384,-119.531044,0.351003,0.406459,-0.076425,-60.112606,13.088373,2.171429
860,2094196450,-121.199738,-47.708408,-119.914192,0.472520,0.434167,0.064542,-60.345078,15.911539,1.362979
861,2094213117,-122.022972,-47.899590,-120.293770,0.177096,0.011172,0.023249,-63.898674,17.470570,-1.316065
862,2094229784,-123.138260,-48.144135,-120.494171,-0.039346,-0.276928,-0.170554,-73.498314,13.115356,-7.599241
863,2094246451,-124.278694,-48.460430,-120.745018,-0.774684,-0.397367,0.420893,-77.294754,17.300720,-9.799331
864,2094263118,-125.344246,-48.735394,-120.931847,-0.524446,-0.494851,0.475182,-69.974510,13.945850,-8.881802
865,2094279785,-126.180428,-49.015995,-121.282745,-0.839050,-0.415268,1.241933,-63.664940,19.521566,-5.138154
866,2094296452,-126.515114,-49.388184,-121.991455,-0.873015,-0.439763,1.343505,-49.908806,34.060390,-1.082189
867,2094313119,-126.469666,-49.826035,-122.922791,-0.902615,-0.267810,0.821477,-37.468338,43.184990,0.852484
868,2094329786,-126.035286,-50.463879,-124.195122,-0.315921,0.168360,-0.291160,-30.175329,60.533134,-1.491080
869,2094346453,-125.813782,-51.200924,-125.330582,-0.197958,-0.310748,-0.993222,-37.165092,59.243694,-10.120959
870,2094363120,-126.442291,-51.794918,-125.873459,-0.040727,-0.834476,-0.169758,-60.829865,35.848755,-16.392687
871,2094379787,-127.456894,-52.367004,-126.025734,-0.200611,-0.296113,0.872423,-65.712425,23.578354,-23.620251
872,2094396454,-128.111160,-53.087467,-126.250038,-0.689698,0.242799,1.158104,-47.596157,31.387848,-28.732468
873,2094413121,-128.001816,-54.011337,-127.310013,-0.866618,0.795533,1.308289,-42.224388,62.384121,-19.910984
874,2094429788,-126.986275,-54.965031,-129.259781,0.068197,0.719789,-0.411034,-31.916676,87.200600,-3.590626
875,2094446455,-126.770103,-55.866566,-130.419785,1.016153,-0.297119,-0.924347,-41.959560,62.531429,-19.115126
876,2094463122,-127.382332,-56.635750,-130.865921,0.702612,-0.122408,0.527028,-56.609844,38.159210,-27.415293
877,2094479789,-127.315887,-57.324261,-131.737885,0.530947,0.351336,1.001303,-37.495468,46.198048,-15.104663
878,2094496456,-126.589706,-58.184689,-133.146713,1.055748,-0.530091,0.897816,-25.536732,65.549126,-13.698803
879,2094513123,-126.041924,-58.991203,-134.323990,0.512876,-0.168257,0.102019,-25.026033,56.798660,-16.753384
880,2094529790,-125.934265,-59.607006,-134.972519,0.263041,0.278722,-0.871434,-24.606058,36.263916,-17.787111
881,2094546457,-125.921150,-60.131981,-135.383896,0.399583,0.274760,-0.687366,-18.166727,26.994999,-17.801437
882,2094563124,-125.889923,-60.661949,-135.819000,0.467904,0.110762,-0.253031,-18.428301,27.576067,-17.760370
883,2094579791,-125.683212,-61.151012,-136.461456,0.456174,-0.009116,0.057887,-18.881512,30.845490,-12.410493
884,2094596458,-125.487869,-61.545792,-137.079376,0.419120,-0.056782,0.604938,-18.412901,26.724195,-8.486212
885,2094613125,-125.285248,-61.872524,-137.591232,0.305617,0.727016,0.853008,-12.480279,21.705412,-7.124881
894,2094763128,-122.771957,-63.871414,-142.555359,0.815693,0.458139,0.078154,-14.235219,8.179443,-1.817108
916,2095129802,-133.411728,-57.796890,-122.184120,1.105916,-0.046605,-0.268442,46.663956,-60.032345,-12.349256
917,2095146469,-133.954666,-57.208794,-120.724251,0.797484,-0.051190,0.215204,43.700436,-59.901661,-6.576189
918,2095163136,-134.440140,-56.568657,-119.345047,0.745053,-0.266163,0.382280,42.585491,-60.685677,-3.571312
919,2095179803,-134.827484,-55.862148,-117.880463,0.977769,0.245109,0.394230,52.186813,-66.059731,-3.761139
920,2095196470,-134.974411,-55.222519,-116.562592,0.793767,0.739683,0.488726,58.772392,-60.284985,-3.990815
921,2095213137,-134.979691,-54.602577,-115.435867,0.465516,0.390931,0.191421,57.393036,-55.288174,-0.751045
922,2095229804,-134.871262,-54.013805,-114.448975,0.166993,0.016393,0.188333,56.979824,-50.916992,1.019746
923,2095246471,-134.678802,-53.393070,-113.547585,-0.131984,-0.196164,0.193657,57.519997,-50.471134,4.295332
924,2095263138,-134.344284,-52.756390,-112.738037,-0.056216,-0.462724,0.224312,61.279427,-49.105835,7.191851
925,2095279805,-134.001892,-52.072689,-111.838547,0.040920,-0.390402,0.453013,65.689453,-53.717052,6.890755
926,2095296472,-133.444977,-51.361313,-111.087090,0.530149,-0.173817,0.487077,71.178535,-51.212597,11.947763
927,2095313139,-132.577072,-50.745998,-110.790878,0.641456,-0.763677,0.722706,68.271751,-34.883179,19.783091
928,2095329806,-131.726532,-50.077553,-110.616447,0.246567,-0.659499,0.734963,61.464695,-33.391624,25.669479
929,2095346473,-130.678055,-49.341476,-110.582985,0.214319,-0.427025,0.939692,66.804802,-31.605259,32.787308
930,2095363140,-129.350266,-48.766666,-110.837074,0.338232,-0.539282,0.447951,70.513229,-16.064810,33.253716
931,2095379807,-128.130554,-48.363079,-111.043304,0.132722,0.033931,0.084959,66.266930,-10.311012,24.429556
932,2095396474,-126.948509,-48.130123,-111.365242,-0.143713,-0.445762,-0.240816,58.871975,0.135115,19.342464
933,2095413141,-125.963486,-47.962379,-111.565048,-0.690543,-0.495769,-0.314040,52.548107,-1.084927,13.279842
934,2095429808,-124.759979,-47.873547,-112.021629,-0.551121,-0.069222,0.029920,54.234428,10.335746,15.400701
935,2095446475,-123.471352,-47.854481,-112.714622,0.254796,-0.645502,0.481314,48.843105,20.899172,17.023685
936,2095463142,-122.291435,-47.874256,-113.413223,0.180196,-0.056999,0.038559,42.066765,22.704342,14.704400
937,2095479809,-121.124092,-47.888355,-114.059738,-0.495351,-0.190143,0.168849,43.628914,21.024382,13.387981
938,2095496476,-119.985977,-47.846355,-114.671570,-0.541460,0.064932,0.160030,43.425007,18.365572,15.124602
939,2095513143,-118.858734,-47.832996,-115.409966,-0.462418,0.181326,-0.002609,37.159985,23.940666,15.742693
940,2095529810,-117.720184,-47.815514,-116.322372,-0.414538,-0.201208,0.044396,30.101242,30.306185,18.786259
941,2095546477,-116.569557,-47.707634,-117.236931,0.757717,0.320407,-0.089439,30.771528,28.309950,23.032795
942,2095563144,-115.537682,-47.754478,-118.240059,0.091062,0.340082,-0.264853,19.740465,36.040001,15.698599
943,2095579811,-114.661095,-47.803020,-119.088310,-0.303058,0.579888,-0.227310,17.264971,30.649632,12.315305
944,2095596478,-113.938087,-47.900799,-119.723228,-0.486401,0.613098,0.287268,17.502052,24.150631,5.617901
945,2095613145,-113.264694,-47.987831,-120.163940,-0.197230,0.606816,0.798374,23.133347,16.765409,2.754327
946,2095629812,-112.580879,-47.985634,-120.516602,0.717617,0.588960,0.908046,27.675053,11.432373,6.086602
947,2095646479,-111.889992,-48.015903,-120.841644,0.549811,0.759815,0.436570,29.334873,11.203386,3.701720
948,2095663146,-111.181183,-48.024826,-121.214317,0.102261,0.496907,-0.155671,28.269985,12.548135,5.440176
949,2095679813,-110.631783,-47.985882,-121.434647,0.258754,-0.047166,-0.478937,25.504505,5.874691,5.786339
1,2116346893,-102.623390,-58.030941,-1.497998,-0.844311,-1.135561,0.140308,-0.342775,-6.760950,11.124735
2,2116363560,-102.490044,-57.825325,-1.609854,-0.829124,-1.203510,-0.041817,4.793925,-0.524548,13.554781
3,2116380227,-102.226517,-57.610065,-1.847986,-0.501226,-0.858712,-0.178064,6.213128,3.377172,14.988265
4,2116396894,-102.120583,-57.381992,-1.950120,-0.358870,-0.757576,-0.129569,3.672755,-0.977240,14.809587
5,2116413561,-102.003471,-57.160873,-2.041480,-0.655437,-1.115166,-0.115626,4.900693,-1.180426,14.332961
6,2116430228,-101.740417,-56.908234,-2.239474,-0.502477,-0.886887,-0.224754,8.305843,1.902853,16.904268
7,2116446895,-101.568085,-56.601460,-2.357907,-0.434480,-0.726137,-0.264852,6.890216,-1.207115,19.554230
8,2116463562,-101.392166,-56.293194,-2.493787,-0.395077,-0.798510,-0.403891,6.254820,-0.564756,19.765364
9,2116480229,-101.269424,-55.990147,-2.544044,-0.432732,-0.621780,-0.211979,7.359251,-3.221852,18.898300
10,2116496896,-101.153076,-55.699181,-2.560922,-0.441898,-0.703073,-0.058229,8.639631,-4.130362,17.978292
11,2116513563,-100.966293,-55.399433,-2.667056,-0.402662,-0.781950,-0.068995,8.459625,-1.206693,19.081072
12,2116530230,-100.770370,-55.098827,-2.819534,-0.251199,-0.774621,-0.182041,6.742994,0.429225,19.438177
13,2116546897,-100.686890,-54.779114,-2.877804,-0.181615,-0.654424,-0.195114,4.655249,-2.887695,19.963867
14,2116563564,-100.772896,-54.457985,-2.761384,-0.146961,-0.488312,-0.048911,3.049024,-8.852390,18.919357
15,2116580231,-100.931458,-54.148888,-2.530743,-0.405341,-0.638930,-0.017992,4.236981,-12.711118,17.436125
16,2116596898,-101.051460,-53.852482,-2.316235,-0.465636,-0.607070,-0.042501,5.731497,-12.103762,16.756439
17,2116613565,-101.227669,-53.573818,-2.045090,-0.597105,-0.574418,-0.177465,5.057344,-13.959867,15.285729
18,2116630232,-101.421783,-53.328484,-1.751646,-0.498217,-1.235138,0.084204,5.018246,-14.448784,13.115238
19,2116646899,-101.474075,-53.099503,-1.565076,-0.519631,-0.848658,-0.092886,8.349730,-10.570284,12.875540
20,2116663566,-101.536179,-52.913708,-1.348527,-0.566944,-0.557098,-0.093451,9.181873,-11.159630,10.104380
21,2116680233,-101.670753,-52.752865,-1.040659,-0.507276,-0.580398,0.024673,9.175818,-14.145143,7.947291
22,2116696900,-101.694656,-52.662209,-0.811520,-0.606419,-0.814314,0.058171,12.035861,-10.527368,4.378553
23,2116713567,-101.601265,-52.624798,-0.694696,-0.233575,-0.310036,0.114631,13.709597,-5.882639,2.078094
24,2116730234,-101.615311,-52.632675,-0.516719,-0.187783,-0.547822,0.345996,10.184031,-7.519419,-1.031450
25,2116746901,-101.632141,-52.662418,-0.375751,-0.319148,-1.333158,0.307298,8.248912,-5.927485,-2.046212
26,2116763568,-101.465034,-52.733875,-0.481833,-0.216836,-0.990980,0.162464,7.502264,3.378079,-2.688195
27,2116780235,-101.498749,-52.820305,-0.501717,0.088176,-0.766193,0.318064,-0.436479,0.486302,-4.196589
28,2116796902,-101.909241,-52.864029,-0.222840,0.005133,-0.628655,0.677096,-8.751584,-10.617868,-3.878623
29,2116813569,-102.463379,-52.895061,0.193572,-0.397456,-0.559937,0.782399,-10.786277,-15.598651,-4.257348
30,2116830236,-102.972160,-52.927258,0.552912,-0.507768,-0.797100,0.707435,-10.781075,-13.509332,-4.002539
31,2116846903,-103.209862,-52.999763,0.597463,-0.418288,-1.079810,0.614797,-9.580279,-1.833716,-3.856902
32,2116863570,-103.340538,-53.097977,0.541500,-0.386282,-0.716029,0.760310,-7.973875,2.071049,-4.524266
33,2116880237,-103.527580,-53.169506,0.601515,-0.548545,-0.498345,0.935553,-5.791738,-2.349466,-3.929365
34,2116896904,-103.607635,-53.266624,0.624705,-0.940927,-0.476419,0.989016,-1.139048,-0.686689,-5.112347
35,2116913571,-103.476624,-53.413738,0.535095,-1.121522,-0.296506,0.714280,6.097880,3.948769,-7.082746
36,2116930238,-103.258179,-53.582840,0.482848,-0.933274,-0.513029,0.553403,13.139049,2.928962,-8.697977
37,2116946905,-103.014008,-53.750961,0.464418,-0.929531,-0.541065,0.336629,16.311357,1.700474,-8.936036
38,2116963572,-102.679657,-53.923874,0.413796,-0.740136,-0.528438,0.390949,20.158569,2.832788,-8.980225
39,2116980239,-102.270729,-54.101562,0.332207,-0.736682,-0.519714,0.422405,23.130209,3.889675,-9.054802
40,2116996906,-101.831551,-54.281765,0.233049,-0.657986,-0.565932,0.252635,24.077732,4.444679,-9.115069
41,2117013573,-101.425758,-54.455078,0.165397,-0.482576,-0.465149,-0.032006,23.600430,3.204329,-8.980228
42,2117030240,-101.147835,-54.604279,0.203664,-0.403834,-0.379240,-0.324389,21.101654,-0.763670,-8.315536
43,2117046907,-100.975525,-54.728519,0.343247,-0.425327,-0.402733,-0.324291,19.722059,-4.529613,-7.521322
44,2117063574,-100.863747,-54.837807,0.553866,-0.323661,-0.240979,-0.133801,19.584162,-7.118869,-7.097099
45,2117080241,-100.833267,-54.937935,0.892036,-0.279709,-0.094498,0.112442,20.985521,-11.534947,-7.381544
46,2117096908,-100.906677,-55.054371,1.391304,-0.651306,-0.216725,0.273342,22.692377,-16.762526,-9.388825
47,2117113575,-100.904236,-55.215321,1.929721,-1.057908,-0.198799,0.285145,29.209249,-17.504570,-12.267812
48,2117130242,-100.811981,-55.368923,2.540481,-1.335130,0.057017,0.320232,38.216949,-19.952791,-12.280069
49,2117146909,-100.791695,-55.484093,3.230500,-0.991334,-0.078943,-0.046422,37.863087,-22.976049,-10.500834
50,2117163576,-101.069397,-55.573307,4.095912,0.127805,-0.675528,-0.231024,28.702299,-29.027771,-10.144934
51,2117180243,-101.481758,-55.677807,4.892945,0.226398,-1.088839,-0.569097,17.286123,-26.441254,-10.745259
52,2117196910,-101.890152,-55.798439,5.633293,0.336993,-1.135607,-0.724856,14.772627,-24.206896,-11.471338
53,2117213577,-102.442421,-55.824585,6.404444,-0.023932,-1.153877,-0.017057,7.699013,-26.266918,-6.326994
54,2117230244,-102.925034,-55.771797,7.075777,-0.108132,-0.906028,0.382538,6.927066,-23.965996,-1.197320
55,2117246911,-103.288330,-55.696072,7.583505,0.537764,-0.626958,0.225028,5.949422,-18.911726,1.219057
56,2117263578,-103.830307,-55.562550,8.216986,0.369351,-0.768276,-0.043181,1.421386,-23.914127,3.445062
57,2117280245,-104.552696,-55.395779,9.076058,-0.309258,-0.456969,-0.257933,1.699620,-31.948841,3.225515
58,2117296912,-105.122757,-55.196297,9.869534,-0.840573,-0.438075,-0.047158,7.504286,-30.445131,5.313045
59,2117313579,-105.517227,-54.996021,10.566360,-0.842250,-0.531478,-0.015728,13.193395,-27.422226,5.949076
60,2117330246,-105.689880,-54.831100,11.156593,-0.773588,-0.721337,0.003213,21.191837,-23.438881,4.730868
61,2117346913,-105.689911,-54.750305,11.688215,-0.540825,-1.027711,0.004605,28.632874,-20.182741,0.364464
62,2117363580,-105.540077,-54.673977,12.104446,-0.262794,-0.659745,-0.050826,31.956257,-16.290955,1.195369
63,2117380247,-105.473839,-54.569576,12.631720,-0.337771,-0.117379,-0.012015,32.353088,-20.488411,1.804008
64,2117396914,-105.411339,-54.484776,13.192601,-0.104858,-0.537020,-0.210529,33.736446,-21.336868,0.362633
65,2117413581,-105.247261,-54.422092,13.738365,0.139806,-0.805180,-0.191765,39.066391,-20.509855,-0.749791
66,2117430248,-105.043526,-54.394550,14.221840,0.289652,-0.751567,-0.113513,38.397015,-17.886421,-2.162545
67,2117446915,-104.817749,-54.381012,14.595177,0.349165,-0.510232,-0.090565,34.342926,-13.965981,-1.922614
68,2117463582,-104.678131,-54.334671,14.917129,0.532345,-0.277964,-0.089643,26.660450,-12.745648,0.474317
69,2117480249,-104.691628,-54.212173,15.274611,0.459805,-0.255535,-0.176758,19.191425,-15.134653,4.584690
70,2117496916,-104.766716,-54.054932,15.641678,0.090288,-0.319452,-0.090376,15.931688,-16.037565,6.495272
71,2117513583,-104.872795,-53.897305,16.025095,-0.313208,-0.184213,0.092895,14.829724,-16.657034,6.330338
72,2117530250,-104.960365,-53.754211,16.393318,-0.593282,-0.398945,0.247570,15.166439,-15.970968,5.585506
73,2117546917,-104.872314,-53.650772,16.651464,-0.747889,-0.877370,0.280248,20.356165,-11.618009,4.278591
74,2117563584,-104.701622,-53.569817,16.893770,-0.748973,-0.790464,0.375874,24.531891,-10.734900,3.134971
75,2117580251,-104.563164,-53.502541,17.227114,-0.900034,-0.576692,0.447419,26.986019,-13.672885,1.535390
76,2117596918,-104.397881,-53.469959,17.530890,-0.756137,-0.380582,0.232219,27.154474,-12.136297,-0.190341
77,2117613585,-104.267807,-53.456814,17.809900,-0.420495,-0.143860,-0.092326,23.847984,-10.996250,-1.080359
78,2117630252,-104.201447,-53.457466,18.091871,-0.107442,-0.096063,-0.564520,20.167585,-10.899646,-1.897456
79,2117646919,-104.213135,-53.453053,18.415293,-0.217450,-0.514903,-0.883348,17.482342,-12.411269,-1.964087
80,2117663586,-104.274734,-53.464142,18.781979,-0.065781,-0.224029,-0.748731,16.571117,-13.679279,-3.255533
81,2117680253,-104.546867,-53.448093,19.367731,-0.007355,-0.909103,-0.059458,14.499213,-21.651955,-3.665468
82,2117696920,-104.653938,-53.441837,19.786360,0.170282,-0.959867,0.991690,16.343243,-15.714646,-2.796553
83,2117713587,-104.850250,-53.420380,20.241646,0.467289,-0.385118,1.527179,12.754944,-17.207748,-2.288533
84,2117730254,-105.123634,-53.355659,20.717134,0.036781,-0.636638,1.224718,9.091478,-18.582195,-0.038778
85,2117746921,-105.176750,-53.297825,20.997372,-0.697607,-0.336643,0.585366,12.890928,-11.741258,1.335889
86,2117763588,-105.046005,-53.259785,21.143700,-0.850649,-0.369029,-0.125278,17.479504,-6.802153,1.440543
87,2117780255,-104.787804,-53.242413,21.224361,-0.763091,-0.494445,-0.385816,21.964315,-4.205920,0.864078
88,2117796922,-104.585754,-53.253727,21.382048,-0.661207,-0.287000,-0.181315,22.299158,-6.441670,-1.494696
89,2117813589,-104.380165,-53.300751,21.536564,-0.555008,-0.530999,0.121706,22.365301,-5.798252,-3.526581
90,2117830256,-104.094147,-53.379925,21.601843,-0.214948,-0.172868,0.025176,22.897186,-2.231434,-4.591520
91,2117846923,-104.118759,-53.445435,21.924320,0.130049,0.520184,-0.126882,16.649643,-11.359928,-6.036576
92,2117863590,-104.545876,-53.472385,22.596601,0.105486,0.062515,-0.156714,9.371870,-24.009876,-6.929047
93,2117880257,-104.820053,-53.526138,23.165377,0.088375,-0.912471,-0.152354,13.572462,-19.957895,-7.686786
94,2117896924,-105.059853,-53.587246,23.646894,0.258093,-0.885123,0.039906,11.443357,-16.773886,-7.385933
95,2117913591,-105.401573,-53.614609,24.100420,0.391468,-0.584997,0.859171,3.990431,-16.283113,-5.245576
96,2117930258,-105.743706,-53.580364,24.510660,0.047067,-0.770655,1.256154,1.875511,-15.758392,-1.358704
97,2117946925,-105.894119,-53.516270,24.785194,-0.573292,-1.193999,0.842073,6.811631,-11.597974,1.616028
98,2117963592,-105.710373,-53.443611,24.848629,-0.593262,-0.980860,0.222720,16.676439,-4.496929,4.160691
99,2117980259,-105.455269,-53.341347,24.898438,-0.167831,-0.616090,-0.229552,20.304085,-4.491912,6.009858
100,2117996926,-105.180702,-53.230598,24.989286,-0.082070,-0.792868,-0.363014,23.441004,-6.025746,6.125719
101,2118013593,-104.978134,-53.143845,25.138966,0.067919,-0.735886,-0.172622,21.944050,-7.676908,4.202008
102,2118030260,-104.860786,-53.054028,25.357430,0.103323,-0.559837,0.253867,20.124937,-10.120708,3.754796
103,2118046927,-104.775459,-52.946854,25.599064,0.107742,-0.520337,0.464883,19.302526,-11.206319,4.556693
104,2118063594,-104.611526,-52.850842,25.786659,0.045494,-0.434076,0.293780,21.418528,-9.157839,4.420447
105,2118080261,-104.429100,-52.779236,25.959637,-0.022764,-0.099485,0.002965,21.819008,-8.279398,3.156957
106,2118096928,-104.424225,-52.702614,26.231544,-0.367841,0.011047,-0.164870,15.879251,-11.841678,2.559077
107,2118113595,-104.471207,-52.649334,26.590235,-0.516490,-0.270417,0.135525,16.898245,-14.567006,0.404457
108,2118130262,-104.384048,-52.598015,26.812107,-0.733881,-0.483068,0.106588,18.406038,-9.724138,1.529409
109,2118146929,-104.356186,-52.539768,27.156509,-0.649432,-0.001683,-0.242297,20.681257,-14.165455,0.824391
110,2118163596,-104.434792,-52.501179,27.655634,-0.611105,-0.955983,-0.130587,21.650536,-19.357006,-1.739556
111,2118180263,-104.393646,-52.512405,28.062065,-0.540337,-0.542297,0.062242,24.418909,-15.342104,-3.802447
112,2118196930,-104.617500,-52.517059,28.663097,-0.295309,-0.305146,0.118804,17.785246,-22.307522,-5.227234
113,2118213597,-104.962234,-52.511177,29.315411,-0.209909,-0.659358,0.161345,12.974154,-24.249081,-5.203362
114,2118230264,-105.218201,-52.527225,29.835377,-0.099070,-0.775334,0.231391,12.003573,-19.207012,-5.339387
115,2118246931,-105.380165,-52.535130,30.251663,-0.034456,-0.847139,0.305694,12.706319,-15.658487,-3.933975
116,2118263598,-105.437988,-52.534233,30.594921,-0.213034,-0.934320,0.263658,15.478091,-13.217018,-2.742740
117,2118280265,-105.469948,-52.544849,30.909813,-0.310567,-0.761104,0.132124,15.678267,-12.027088,-3.146409
118,2118296932,-105.508461,-52.585598,31.222349,-0.238418,-0.724549,0.029959,15.178661,-11.455769,-4.871247
119,2118313599,-105.529678,-52.646217,31.527796,-0.152503,-0.771565,-0.078870,15.892081,-10.868187,-5.955383
120,2118330266,-105.561050,-52.720173,31.849644,-0.144537,-0.806452,-0.089431,16.080475,-11.208184,-6.887328
121,2118346933,-105.634735,-52.815235,32.198364,-0.316224,-0.539090,-0.043533,14.840997,-11.777209,-8.374699
122,2118363600,-105.762703,-52.930470,32.602566,-0.422464,-0.377464,0.076023,14.259002,-13.340588,-10.096030
123,2118380267,-105.885185,-53.066986,32.993717,-0.365708,-0.576257,-0.013961,13.993643,-12.470356,-11.214552
124,2118396934,-105.960022,-53.213367,33.346394,-0.157971,-0.637705,0.005993,15.035354,-10.912039,-11.414000
125,2118413601,-106.073074,-53.364059,33.716404,-0.159133,-0.525083,0.058480,13.610514,-11.372698,-11.839374
126,2118430268,-106.249969,-53.518963,34.121563,-0.163701,-0.518087,0.072347,11.508552,-12.433331,-12.446508
127,2118446935,-106.438248,-53.666786,34.529678,-0.103270,-0.617511,-0.026026,11.007581,-12.562165,-12.090110
128,2118463602,-106.630013,-53.810730,34.951214,-0.080111,-0.628972,-0.082694,11.478855,-12.991447,-12.029253
129,2118480269,-106.873238,-53.948982,35.428009,-0.042213,-0.625280,-0.042267,11.105756,-14.865497,-12.296628
130,2118496936,-107.139236,-54.083027,35.907642,-0.089692,-0.410577,0.057240,9.918041,-14.926543,-12.130079
131,2118513603,-107.428886,-54.216122,36.390331,-0.194121,-0.363669,0.169681,8.685478,-14.932906,-12.160506
132,2118530270,-107.687401,-54.346424,36.833843,-0.123838,-0.586295,0.209072,8.681367,-13.561430,-11.636263
133,2118546937,-107.863098,-54.468620,37.189880,-0.024778,-0.750659,0.147902,9.417397,-10.704890,-10.275430
134,2118563604,-107.955772,-54.585915,37.437290,-0.025144,-0.670062,0.076418,9.115889,-7.140588,-8.843795
135,2118580271,-108.125427,-54.674751,37.792030,-0.069033,-0.677402,0.166842,9.764434,-11.167263,-8.383569
136,2118596938,-108.167976,-54.762455,38.037766,-0.225140,-0.902301,0.093400,12.071156,-7.559545,-7.152609
137,2118613605,-108.252525,-54.828728,38.283108,-0.160692,0.134789,0.036477,9.542050,-7.921565,-5.929075
138,2118630272,-108.480263,-54.876846,38.647343,-0.151066,-0.637054,0.185149,6.796174,-12.137112,-6.210213
139,2118646939,-108.411079,-54.955841,38.768665,-0.211176,-1.017294,0.255679,12.692184,-3.573256,-5.324807
140,2118663606,-108.290703,-55.021282,38.870884,-0.090073,-0.334669,0.152859,14.826982,-3.207289,-4.338296
141,2118680273,-108.390106,-55.052681,39.166378,-0.138876,-0.261028,0.139688,11.151492,-10.152488,-4.492164
142,2118696940,-108.568802,-55.079563,39.520191,-0.174274,-0.366669,0.195218,9.266189,-12.122679,-4.891364
143,2118713607,-108.704720,-55.101753,39.843166,-0.146491,-0.629495,0.148323,10.315696,-11.185408,-4.313924
144,2118730274,-108.723320,-55.128204,40.047680,-0.052673,-0.538932,0.107439,11.530404,-7.239679,-3.265378
145,2118746941,-108.699730,-55.145317,40.189163,-0.008396,-0.373962,0.148385,10.961787,-5.372779,-2.038682
146,2118763608,-108.692505,-55.142769,40.324875,-0.025347,-0.372067,0.186795,9.697593,-5.560545,-0.858346
147,2118780275,-108.634323,-55.126095,40.404068,-0.028261,-0.435767,0.191246,9.967397,-3.996914,0.565791
148,2118796942,-108.534561,-55.100201,40.451962,-0.108183,-0.435441,0.095554,10.922137,-3.157189,1.435663
149,2118813609,-108.425003,-55.071278,40.509274,-0.157124,-0.468505,0.032667,11.974384,-3.524860,1.510823
150,2118830276,-108.256859,-55.054955,40.528019,-0.149666,-0.467695,0.143698,13.593966,-2.025825,1.212243
151,2118846943,-108.088631,-55.038830,40.555008,-0.043626,-0.379310,0.194497,14.002583,-2.289265,1.114339
152,2118863610,-107.926392,-55.013340,40.586727,0.062777,-0.367776,0.160772,13.874608,-2.616454,1.599841
153,2118880277,-107.761375,-54.980202,40.606884,0.003749,-0.313968,0.110404,13.471003,-2.376527,2.163974
154,2118896944,-107.653198,-54.928745,40.630371,0.029903,-0.173759,0.135926,10.217529,-2.819383,3.179465
155,2118913611,-107.620506,-54.842323,40.663177,0.175285,-0.140162,0.183750,6.150206,-3.763953,5.081144
156,2118930278,-107.576981,-54.741058,40.643829,0.192402,-0.297825,0.171479,4.244133,-2.315081,6.477177
157,2118946945,-107.528076,-54.632793,40.627392,0.114446,-0.367601,0.094248,4.708685,-2.531432,6.849370
158,2118963612,-107.458435,-54.500835,40.655106,-0.115349,-0.568453,0.147149,8.112179,-4.412699,7.747481
159,2118980279,-107.295311,-54.375134,40.653973,-0.176899,-0.633610,0.189720,12.311753,-3.333106,7.694463
160,2118996946,-107.061234,-54.260315,40.613216,-0.094942,-0.560243,0.114026,14.634568,-1.788357,7.487809
161,2119013613,-106.824631,-54.177906,40.553127,0.080461,-0.459289,-0.073116,13.852518,-0.546255,5.828257
162,2119030280,-106.676071,-54.091095,40.556927,-0.023221,-0.241550,-0.097024,11.680761,-2.749614,5.431387
163,2119046947,-106.655762,-54.004036,40.625118,-0.087400,-0.330003,-0.067831,7.107916,-4.920828,4.798649
164,2119063614,-106.661659,-53.913704,40.742989,0.294366,-0.564435,0.194140,7.945568,-6.660495,4.480745
165,2119080281,-106.629715,-53.863426,40.787010,0.231599,-0.780434,0.082838,6.631097,-3.480216,2.928960
166,2119096948,-106.501503,-53.836864,40.669987,-0.088244,0.237480,-0.190027,4.609665,2.394064,3.194000
167,2119113615,-106.777100,-53.747173,40.982285,-0.356555,-0.388195,-0.038225,1.163925,-13.274444,2.470891
168,2119130282,-106.728165,-53.663559,41.048374,-0.558637,-0.988721,0.285957,8.715602,-4.821080,4.609487
169,2119146949,-106.522202,-53.578178,41.022221,-0.655624,-0.185843,0.193979,13.675058,-1.694204,5.656306
170,2119163616,-106.473763,-53.494244,41.125961,-0.175342,-0.335314,-0.048104,10.492421,-6.103164,4.256212
171,2119180283,-106.531746,-53.422802,41.296848,-0.214899,-0.107050,-0.038066,7.337318,-8.192187,2.851239
172,2119196950,-106.716217,-53.333054,41.555206,-0.302688,-0.349031,0.040297,3.953482,-11.532393,2.989433
173,2119213617,-106.797058,-53.247341,41.720387,-0.480511,-0.581159,0.145929,5.675899,-8.283868,3.687789
174,2119230284,-106.732201,-53.163605,41.762630,-0.610569,-0.550575,0.157348,8.497150,-4.033092,4.843702
175,2119246951,-106.566422,-53.073082,41.753727,-0.818533,-0.574561,0.280238,12.096291,-2.379485,5.765263
176,2119263618,-106.338623,-52.988411,41.692223,-0.570669,-0.662485,0.255722,13.299474,-0.441051,5.964734
177,2119280285,-106.036819,-52.916809,41.562637,-0.336711,-0.682416,0.251173,14.489364,2.171491,5.891892
178,2119296952,-105.690086,-52.849308,41.429367,-0.209308,-0.661186,0.220787,17.009703,2.403799,5.675659
179,2119313619,-105.364319,-52.803570,41.325993,-0.318361,-0.672992,0.168540,17.186697,1.748805,4.106534
180,2119330286,-105.069458,-52.783283,41.262199,-0.375239,-0.596132,0.285144,17.225010,0.781066,2.240761
181,2119346953,-104.743973,-52.779053,41.160362,-0.232432,-0.771672,0.357069,17.248833,2.373781,1.651348
182,2119363620,-104.283775,-52.784466,40.883633,-0.002169,-0.611447,0.287981,16.974895,8.672542,2.657046
183,2119380287,-103.871834,-52.760567,40.591595,0.359503,-0.418032,0.148958,13.347130,8.804407,4.423222
184,2119396954,-103.658241,-52.708256,40.439312,0.401697,-0.370643,0.072926,8.131594,3.492867,4.820748
185,2119413621,-103.682083,-52.657551,40.486427,0.095307,-0.428560,0.180717,3.404856,-3.518711,3.010997
186,2119430288,-103.697235,-52.644554,40.539883,-0.277280,-0.710862,0.487370,4.228689,-3.210565,0.755722
187,2119446955,-103.618645,-52.678013,40.467384,-0.131230,-0.546792,0.179941,3.843781,1.900366,-0.868488
188,2119463622,-103.660194,-52.710392,40.467178,-0.014808,-0.442937,0.083814,0.081788,-0.667966,-1.426794
189,2119480289,-103.791771,-52.749435,40.515926,0.009349,-0.582259,0.048322,-2.977156,-2.301672,-2.234068
190,2119496956,-104.010788,-52.796509,40.618523,0.098091,-0.578033,-0.041468,-5.651136,-4.068565,-3.174644
191,2119513623,-104.298035,-52.843971,40.794823,-0.137006,-0.650108,0.131068,-6.223388,-6.634049,-3.858989
192,2119530290,-104.559593,-52.905720,40.953651,-0.225394,-0.571401,0.260092,-5.508128,-5.780301,-4.556795
193,2119546957,-104.879158,-52.970032,41.194218,-0.079922,-0.637838,0.435575,-5.072405,-8.563085,-5.479340
194,2119563624,-105.175163,-53.032639,41.480698,-0.269367,-0.843421,0.556523,-1.444646,-10.151136,-5.844781
195,2119580291,-105.190514,-53.122761,41.451321,-0.150392,-0.770495,0.367307,0.251830,1.308086,-4.475718
196,2119596958,-105.175797,-53.190872,41.444565,0.070439,-0.718429,0.034199,3.142736,0.176491,-3.413277
197,2119613625,-105.300491,-53.263493,41.543636,0.174708,-0.981756,-0.059736,-0.133903,-3.416478,-4.672371
198,2119630292,-105.350044,-53.354481,41.560600,-0.245199,-0.622648,0.182600,0.426957,-0.270060,-4.958811
199,2119646959,-105.582878,-53.413589,41.751472,-0.263802,-0.429118,0.223640,-2.192781,-6.765045,-4.771686
200,2119663626,-105.767998,-53.461380,41.919682,-0.334501,-0.791024,0.330223,-0.413658,-6.140427,-3.917347
201,2119680293,-105.848701,-53.504364,41.960789,-0.343297,-0.674929,0.164760,-0.275183,-1.836392,-2.413613
202,2119696960,-105.884575,-53.522572,41.983437,-0.433080,-0.637320,0.065852,1.527445,-1.601601,-0.805455
203,2119713627,-105.928032,-53.522381,42.032436,-0.367154,-0.506982,0.026368,2.344491,-2.807716,-0.004188
204,2119730294,-106.024223,-53.512280,42.169773,-0.261774,-0.526240,0.087070,3.439089,-6.002107,-0.301013
205,2119746961,-106.100693,-53.508789,42.304707,-0.091949,-0.668578,0.063800,4.504282,-5.809895,-0.667403
206,2119763628,-106.124260,-53.519249,42.389351,0.101163,-0.741195,0.006909,5.254670,-3.849653,-0.977176
207,2119780295,-106.080620,-53.536396,42.408649,0.214369,-0.688786,0.022498,6.134095,-1.499444,-0.716349
208,2119796962,-106.084587,-53.560749,42.441059,0.025226,-0.646410,0.072412,3.912755,-1.830860,-1.258160
209,2119813629,-106.062561,-53.584553,42.434540,-0.152143,-0.714279,0.080827,3.592967,-0.504677,-0.842516
210,2119830296,-106.028168,-53.603218,42.390339,0.115220,-0.824250,-0.056500,2.516121,0.699220,-0.173705
211,2119846963,-105.983162,-53.615520,42.310356,0.197687,-0.784684,-0.075694,1.421793,1.818931,0.543918
